#ZVView-data-copy:  21-Dec-2022 12:59:13
#=======================================
#
#name:   TENDL-2021: HO-166(N,G)HO-167
#X.axis: Incident Energy
#Y.axis: Cross Section
#wdata:  2
#ldata:  6402
#data...
#            X            Y
#          MeV        barns
         1e-11       167629 
   1.10304e-11       159608 
   1.21669e-11       151971 
   1.34206e-11       144699 
   1.48034e-11       137776 
   1.63287e-11       131183 
   1.80111e-11       124906 
   1.98669e-11       118930 
   2.19139e-11       113239 
   2.41719e-11       107821 
   2.66625e-11       102662 
   2.94097e-11      97749.5 
     3.244e-11      93072.4 
   3.57825e-11      88619.1 
   3.94694e-11        84379 
   4.35362e-11      80341.8 
   4.80221e-11      76497.7 
   5.29701e-11      72837.6 
    5.8428e-11      69352.7 
   6.44483e-11      66034.6 
   7.10888e-11      62875.2 
   7.84136e-11      59867.1 
   8.64931e-11      57002.9 
   9.54051e-11      54275.8 
   1.05235e-10      51679.2 
   1.16078e-10      49206.9 
   1.28039e-10        46853 
   1.41231e-10      44611.7 
   1.55784e-10      42477.7 
   1.71835e-10      40445.8 
    1.8954e-10      38511.2 
    2.0907e-10      36669.2 
   2.30612e-10      34915.4 
   2.54374e-10      33245.5 
   2.80584e-10      31655.6 
   3.09494e-10      30141.9 
   3.41383e-10      28700.6 
   3.76558e-10      27328.3 
   4.15358e-10      26021.8 
   4.58155e-10      24777.8 
   5.05362e-10      23593.4 
   5.57433e-10      22465.7 
   6.14869e-10      21392.1 
   6.78223e-10      20369.9 
   7.48105e-10      19396.7 
   8.25188e-10      18470.2 
   9.10213e-10      17588.1 
      1.004e-9      16748.2 
    1.10745e-9      15948.7 
    1.22155e-9      15187.5 
    1.34742e-9      14462.8 
    1.48625e-9      13772.9 
    1.63939e-9      13116.1 
    1.80831e-9      12490.8 
    1.99463e-9      11895.6 
    2.20016e-9      11329.1 
    2.42685e-9      10789.7 
    2.67691e-9      10276.3 
    2.95273e-9      9787.63 
    3.25697e-9      9322.49 
    3.59256e-9      8879.78 
    3.96272e-9      8458.44 
    4.37103e-9      8057.47 
    4.82141e-9       7675.9 
    5.31819e-9      7312.83 
    5.86616e-9      6967.36 
    6.47059e-9      6638.65 
     7.1373e-9      6325.89 
    7.87271e-9      6028.29 
    8.68389e-9      5745.16 
    9.57865e-9      5475.82 
    1.05656e-8      5219.67 
    1.16543e-8      4976.06 
    1.28551e-8      4744.42 
    1.41796e-8      4524.22 
    1.56406e-8      4314.91 
    1.72522e-8         4116 
    1.90298e-8      3927.01 
    2.09906e-8      3747.49 
    2.33167e-8      3565.12 
    2.52419e-8      3434.05 
       2.53e-8      3430.33 
    2.81037e-8      3265.25 
    3.12166e-8      3109.32 
    3.46759e-8      2961.96 
    3.85167e-8      2822.94 
    4.27851e-8      2691.74 
    4.75241e-8      2568.16 
    5.27906e-8      2451.75 
    5.86379e-8      2342.34 
     6.5136e-8      2239.54 
    7.23507e-8      2143.21 
    8.03684e-8      2053.04 
    8.92703e-8      1968.93 
     9.9163e-8      1890.61 
    1.10147e-7      1818.05 
    1.22353e-7      1751.07 
    1.36864e-7      1685.75 
    1.53096e-7      1626.73 
    1.71253e-7      1574.07 
    1.91563e-7      1527.89 
    2.14282e-7      1488.43 
    2.39696e-7      1456.09 
    2.68123e-7      1431.35 
    2.99923e-7      1415.27 
    3.35493e-7      1408.65 
    3.37843e-7      1408.61 
     3.7765e-7      1413.98 
    4.16562e-7      1429.86 
    4.59483e-7      1458.55 
    5.03277e-7      1499.48 
    5.43602e-7      1547.65 
    5.83046e-7      1604.93 
    6.25352e-7       1678.4 
    6.66029e-7      1761.64 
    7.04418e-7      1853.66 
    7.39837e-7      1951.47 
    7.71594e-7      2051.11 
    8.04714e-7      2168.77 
    8.33377e-7      2283.61 
    8.63104e-7      2417.42 
    8.93847e-7      2573.51 
    9.19246e-7      2718.51 
    9.45367e-7      2885.36 
     9.7223e-7      3078.19 
    9.92901e-7      3243.11 
    1.01396e-6      3428.24 
    1.03552e-6      3638.52 
    1.05749e-6      3877.51 
    1.07997e-6      4151.93 
    1.09521e-6      4357.51 
    1.11066e-6      4584.35 
    1.12633e-6      4835.54 
    1.14222e-6      5114.84 
    1.15833e-6      5426.79 
    1.17467e-6      5776.75 
    1.19125e-6      6171.22 
    1.20805e-6      6618.29 
    1.22081e-6      6993.82 
    1.23368e-6         7409 
    1.24673e-6         7872 
    1.25991e-6      8388.23 
    1.27321e-6       8966.6 
    1.28663e-6      9617.83 
    1.30025e-6      10358.5 
    1.30939e-6      10907.7 
    1.31859e-6      11508.6 
    1.32786e-6      12167.9 
    1.33719e-6      12893.7 
    1.34659e-6      13695.5 
    1.35606e-6      14584.4 
    1.36559e-6      15573.8 
    1.37519e-6      16679.5 
    1.38486e-6      17920.8 
    1.39216e-6      18955.5 
    1.39946e-6      20085.2 
    1.40686e-6      21340.1 
    1.41427e-6      22719.3 
    1.42171e-6      24247.2 
    1.42922e-6      25954.3 
    1.43672e-6      27851.2 
     1.4443e-6      29987.7 
    1.44938e-6      31560.5 
    1.45446e-6      33261.1 
    1.45953e-6      35103.4 
    1.46468e-6      37132.7 
    1.46983e-6      39342.5 
    1.47498e-6      41754.3 
    1.48012e-6      44392.3 
    1.48534e-6      47327.1 
    1.49056e-6      50556.7 
    1.49578e-6      54119.4 
      1.501e-6        58059 
    1.50582e-6      62074.5 
    1.51064e-6      66499.3 
    1.51546e-6      71384.4 
    1.52028e-6      76786.7 
    1.52485e-6      82436.9 
    1.52941e-6      88666.2 
    1.53398e-6      95537.5 
    1.53854e-6       103117 
    1.54234e-6       110024 
    1.54615e-6       117508 
    1.54995e-6       125606 
    1.55376e-6       134352 
    1.55756e-6       143770 
    1.56136e-6       153877 
    1.56643e-6       168430 
    1.57151e-6       184174 
    1.57658e-6       201000 
    1.58468e-6       229626 
    1.59582e-6       270124 
    1.60139e-6       289432 
    1.60704e-6       307288 
    1.61128e-6       319015 
    1.61551e-6       328920 
    1.61975e-6       336686 
    1.62398e-6       342054 
    1.62753e-6       344566 
    1.63107e-6       345207 
    1.63487e-6       343802 
    1.63893e-6       339943 
      1.643e-6       333770 
    1.64706e-6       325476 
    1.65113e-6       315310 
     1.6555e-6       302636 
    1.65987e-6       288530 
    1.66569e-6       268194 
    1.68166e-6       210078 
    1.68649e-6       193392 
    1.69132e-6       177576 
    1.69627e-6       162410 
    1.70134e-6       148060 
    1.70514e-6       138107 
    1.70895e-6       128840 
    1.71275e-6       120241 
    1.71655e-6       112282 
    1.72036e-6       104932 
    1.72416e-6      98152.1 
    1.72796e-6      91904.8 
    1.73177e-6        86151 
    1.73557e-6      80852.4 
    1.73938e-6      75972.1 
    1.74318e-6      71475.1 
    1.74698e-6      67328.6 
    1.75079e-6      63502.2 
    1.75459e-6      59967.7 
    1.75923e-6      56013.1 
    1.76387e-6      52412.6 
    1.76851e-6      49128.7 
    1.77316e-6        46128 
     1.7778e-6      43380.7 
    1.78248e-6      40838.1 
    1.78719e-6      38492.8 
     1.7919e-6      36335.9 
     1.7966e-6      34348.5 
    1.80131e-6        32514 
    1.80763e-6      30265.7 
    1.81399e-6        28222 
    1.82036e-6      26372.3 
    1.82672e-6      24693.6 
    1.83313e-6      23155.6 
    1.83959e-6      21743.8 
    1.84604e-6        20454 
    1.85249e-6      19272.7 
    1.85899e-6      18181.1 
    1.86554e-6      17170.7 
    1.87209e-6      16240.2 
    1.87863e-6      15381.6 
    1.88522e-6      14582.4 
    1.89518e-6      13485.7 
    1.90513e-6      12505.5 
    1.91518e-6      11618.3 
    1.92528e-6      10816.8 
    1.93538e-6      10093.6 
    1.94562e-6      9430.23 
    1.95586e-6      8828.67 
    1.96614e-6       8279.1 
    1.97653e-6      7773.66 
    1.98691e-6      7312.12 
    1.99739e-6      6885.82 
    2.00792e-6      6493.21 
    2.01845e-6      6132.55 
    2.02913e-6      5795.97 
    2.03981e-6      5485.72 
    2.05415e-6      5105.88 
    2.06859e-6       4760.9 
    2.08313e-6      4446.78 
    2.09777e-6      4160.11 
    2.11252e-6      3897.88 
    2.12737e-6      3657.51 
    2.14232e-6       3436.7 
    2.15738e-6      3233.47 
    2.17255e-6      3046.06 
    2.18782e-6      2872.93 
     2.2032e-6      2712.73 
    2.21868e-6      2564.27 
    2.23428e-6      2426.46 
    2.24999e-6      2298.37 
     2.2658e-6       2179.1 
    2.28969e-6      2015.37 
    2.31392e-6      1867.01 
    2.33838e-6      1732.87 
    2.36306e-6      1611.28 
    2.38798e-6      1500.79 
    2.41325e-6      1399.69 
    2.43875e-6      1307.43 
    2.46449e-6      1223.07 
    2.49048e-6      1145.75 
    2.51683e-6      1074.43 
    2.54343e-6      1008.84 
    2.57028e-6      948.427 
    2.59738e-6       892.68 
    2.62487e-6      840.926 
    2.65261e-6      793.039 
    2.68061e-6      748.669 
    2.70887e-6      707.507 
    2.73754e-6      669.087 
    2.76647e-6      633.342 
     2.8055e-6      589.427 
    2.84508e-6      549.348 
    2.88522e-6      512.704 
    2.92592e-6       479.14 
     2.9672e-6      448.347 
    3.00907e-6      420.054 
    3.05152e-6      394.018 
    3.09457e-6      370.019 
    3.13823e-6      347.869 
     3.1825e-6      327.404 
     3.2274e-6      308.477 
    3.27294e-6      290.938 
    3.31911e-6      274.669 
    3.36594e-6      259.566 
    3.41343e-6      245.535 
    3.46158e-6      232.488 
    3.51042e-6      220.339 
    3.55994e-6      209.018 
    3.61017e-6      198.463 
     3.6611e-6      188.614 
    3.71275e-6      179.419 
    3.76513e-6       170.83 
      3.845e-6      158.997 
    3.92675e-6      148.272 
    4.01004e-6      138.592 
     4.0953e-6      129.799 
    4.18217e-6      121.849 
    4.27109e-6      114.644 
    4.36169e-6      108.145 
    4.45443e-6      102.267 
    4.54891e-6      96.9895 
    4.64563e-6      92.2493 
    4.74417e-6      88.0389 
    4.84504e-6      84.3161 
    4.94782e-6      81.0844 
    5.05302e-6       78.326 
     5.1602e-6      76.0607 
    5.26991e-6      74.2997 
    5.36084e-6      73.2725 
    5.45587e-6      72.6341 
    5.53766e-6      72.4631 
    5.63146e-6      72.7384 
    5.70552e-6      73.3516 
    5.77958e-6      74.3609 
    5.85468e-6       75.848 
    5.91663e-6      77.4808 
    5.97913e-6      79.5621 
    6.04223e-6      82.1809 
    6.10594e-6      85.4548 
    6.14901e-6      88.0898 
    6.19208e-6      91.1216 
    6.23576e-6      94.6655 
    6.27944e-6      98.7603 
    6.32374e-6      103.574 
    6.35696e-6      107.694 
    6.39049e-6      112.367 
    6.42418e-6      117.661 
    6.45787e-6      123.652 
    6.49204e-6       130.56 
    6.52621e-6      138.454 
    6.54898e-6      144.355 
    6.57208e-6      150.937 
    6.59518e-6      158.201 
    6.61828e-6      166.242 
    6.64138e-6      175.168 
     6.6648e-6       185.26 
    6.68823e-6      196.559 
    6.71165e-6      209.261 
    6.72922e-6      219.851 
    6.74586e-6       230.84 
    6.76203e-6      242.533 
     6.7782e-6      255.352 
    6.79437e-6      269.446 
    6.81055e-6      284.989 
    6.82133e-6      296.257 
    6.83942e-6      317.011 
    6.85298e-6      334.298 
    6.86655e-6      353.274 
    6.88012e-6      374.169 
    6.89369e-6      397.252 
    6.90651e-6      421.371 
    6.91934e-6      448.052 
    6.93216e-6      477.674 
    6.94499e-6      510.693 
    6.95781e-6      547.659 
    6.97064e-6      589.239 
    6.97919e-6       619.92 
    6.98774e-6      653.301 
    6.99629e-6      689.716 
    7.00484e-6      729.556 
    7.01339e-6      773.279 
    7.02194e-6      821.423 
    7.03049e-6      874.629 
    7.03882e-6      932.109 
    7.04716e-6      995.982 
     7.0555e-6      1067.28 
    7.06383e-6      1147.26 
    7.06939e-6      1206.16 
    7.07709e-6      1296.23 
     7.0835e-6         1380 
    7.08991e-6      1472.95 
    7.09632e-6      1576.56 
    7.10274e-6      1692.56 
    7.10915e-6      1823.04 
    7.11428e-6      1939.54 
    7.11941e-6      2068.41 
    7.12454e-6      2211.42 
    7.12967e-6      2370.57 
     7.1348e-6      2548.15 
    7.13993e-6      2746.79 
    7.14335e-6      2892.36 
    7.14677e-6      3049.56 
    7.15019e-6      3219.43 
    7.15361e-6      3403.07 
    7.15703e-6      3601.66 
    7.16045e-6      3816.44 
    7.16387e-6      4048.72 
    7.16729e-6      4299.87 
    7.17071e-6      4571.28 
    7.17413e-6      4864.39 
    7.17755e-6      5180.65 
    7.18097e-6      5521.52 
    7.18439e-6      5888.41 
    7.18781e-6      6282.71 
    7.19123e-6       6705.7 
    7.19585e-6      7324.32 
    7.20046e-6      7999.84 
    7.20508e-6      8734.05 
     7.2097e-6      9527.94 
    7.21431e-6      10381.4 
    7.21962e-6      11433.2 
    7.22526e-6      12632.5 
     7.2309e-6      13905.9 
    7.23945e-6      15948.1 
    7.25826e-6      20620.6 
     7.2651e-6        22243 
    7.27194e-6      23743.5 
    7.27759e-6      24852.2 
    7.28323e-6      25813.6 
    7.28904e-6      26623.3 
    7.29315e-6      27071.5 
    7.29725e-6      27409.8 
    7.30136e-6      27633.1 
    7.30719e-6      27746.4 
    7.31228e-6      27647.5 
    7.31777e-6      27337.6 
    7.32256e-6      26900.3 
    7.32872e-6      26126.5 
    7.33487e-6      25138.4 
    7.34034e-6      24105.5 
    7.34718e-6      22649.6 
    7.35402e-6      21059.4 
    7.37796e-6      15165.2 
     7.3848e-6      13564.7 
    7.38993e-6      12425.4 
    7.39575e-6      11209.4 
    7.40122e-6      10144.8 
    7.40532e-6      9399.74 
    7.40943e-6      8701.28 
    7.41353e-6      8049.37 
    7.41695e-6      7541.22 
    7.42037e-6      7064.29 
    7.42379e-6      6617.74 
    7.42721e-6      6200.51 
    7.43063e-6      5811.43 
    7.43405e-6      5449.24 
    7.43747e-6      5112.58 
    7.44089e-6      4800.05 
    7.44431e-6      4510.25 
    7.44773e-6      4241.75 
    7.45115e-6      3993.16 
    7.45457e-6      3763.11 
    7.45799e-6      3550.27 
    7.46141e-6      3353.38 
    7.46483e-6      3171.22 
    7.46825e-6      3002.64 
    7.47167e-6      2846.56 
     7.4768e-6      2633.69 
    7.48193e-6      2443.58 
    7.48706e-6      2273.43 
    7.49219e-6      2120.78 
    7.49764e-6      1975.36 
     7.5017e-6      1876.91 
     7.5078e-6      1743.14 
    7.51389e-6      1623.93 
    7.51998e-6      1517.25 
    7.52607e-6      1421.38 
    7.53238e-6      1332.02 
    7.53879e-6      1250.05 
     7.5452e-6       1175.9 
    7.55162e-6      1108.57 
    7.55803e-6      1047.21 
     7.5623e-6      1009.27 
    7.57043e-6      942.978 
    7.57855e-6      883.377 
    7.58667e-6      829.569 
    7.59479e-6      780.803 
    7.60292e-6      736.449 
    7.61104e-6      695.977 
    7.61916e-6      658.934 
    7.62728e-6      624.936 
    7.63583e-6      592.072 
    7.64438e-6       561.88 
    7.65293e-6      534.073 
    7.66576e-6      496.299 
    7.67858e-6      462.628 
    7.69141e-6       432.48 
    7.70089e-6      412.177 
    7.71129e-6      391.601 
     7.7269e-6      363.706 
    7.74251e-6      338.898 
    7.75812e-6      316.735 
    7.77373e-6      296.848 
    7.79058e-6      277.591 
    7.80805e-6      259.715 
    7.82551e-6      243.674 
    7.84298e-6      229.225 
    7.86045e-6      216.161 
    7.87852e-6      203.919 
    7.89782e-6      192.102 
    7.91711e-6      181.416 
     7.9364e-6      171.719 
     7.9557e-6      162.893 
    7.97499e-6      154.835 
    8.00018e-6      145.331 
    8.02536e-6      136.826 
    8.05055e-6      129.184 
    8.07573e-6      122.291 
    8.10286e-6      115.599 
    8.12998e-6      109.565 
     8.1571e-6      104.108 
    8.18423e-6      99.1547 
    8.21135e-6      94.6452 
    8.24976e-6      88.9184 
    8.28364e-6      84.4239 
    8.32439e-6      79.6057 
    8.36622e-6      75.2326 
    8.40805e-6      71.3528 
    8.45524e-6      67.4789 
    8.49814e-6      64.3531 
    8.55158e-6      60.9071 
    8.59868e-6      58.2224 
    8.64577e-6        55.82 
    8.70672e-6        53.07 
    8.76766e-6      50.6648 
    8.82951e-6      48.5209 
    8.89136e-6      46.6316 
    8.95408e-6      44.9378 
     9.0486e-6      42.7408 
    9.14401e-6      40.8829 
    9.24076e-6      39.3014 
    9.33843e-6      37.9617 
    9.43701e-6      36.8234 
    9.53651e-6      35.8606 
    9.67105e-6      34.8104 
     9.8075e-6      33.9937 
    9.94586e-6      33.3839 
    1.00862e-5       32.955 
    1.02285e-5      32.6915 
    1.04056e-5      32.5821 
    1.05524e-5       32.661 
    1.07013e-5      32.8913 
    1.08523e-5       33.274 
    1.10054e-5      33.8151 
    1.11606e-5      34.5271 
    1.13181e-5      35.4249 
    1.14778e-5       36.528 
    1.16397e-5      37.8614 
    1.18039e-5      39.4566 
    1.19704e-5      41.3708 
    1.20971e-5       43.049 
     1.2225e-5      44.9672 
     1.2354e-5      47.1582 
    1.24843e-5       49.666 
    1.26164e-5      52.5601 
    1.27497e-5      55.8937 
     1.2839e-5      58.4045 
    1.29296e-5      61.2099 
    1.30201e-5      64.3081 
     1.3112e-5      67.7776 
    1.32038e-5       71.632 
     1.3297e-5      75.9981 
    1.33901e-5      80.8914 
     1.3461e-5      85.0176 
    1.35318e-5      89.5416 
     1.3603e-5       94.539 
    1.36748e-5      100.105 
    1.37467e-5      106.272 
    1.38192e-5      113.195 
     1.3892e-5      120.967 
    1.39649e-5      129.688 
    1.40141e-5      136.201 
    1.40634e-5      143.278 
    1.41126e-5      150.986 
    1.41619e-5      159.402 
    1.42119e-5      168.754 
    1.42618e-5      179.038 
    1.43118e-5       190.38 
    1.43617e-5       202.93 
    1.44124e-5      217.075 
     1.4463e-5      232.867 
     1.4501e-5       245.95 
     1.4539e-5      260.242 
    1.45758e-5      275.368 
    1.46101e-5      290.782 
    1.46444e-5      307.602 
    1.46787e-5      326.004 
     1.4713e-5      346.193 
    1.47474e-5      368.408 
    1.47864e-5      396.483 
    1.48124e-5      417.097 
    1.48384e-5      439.426 
    1.48644e-5      463.665 
    1.48904e-5      490.038 
    1.49164e-5      518.803 
    1.49424e-5      550.258 
     1.4971e-5      588.339 
    1.49943e-5      622.574 
    1.50177e-5      659.975 
    1.50411e-5       700.95 
    1.50644e-5      745.969 
    1.50864e-5      792.585 
    1.51057e-5      837.275 
    1.51251e-5      885.942 
    1.51444e-5      939.072 
    1.51637e-5      997.231 
     1.5183e-5      1061.07 
    1.52045e-5      1139.62 
    1.52206e-5       1204.5 
    1.52366e-5      1275.17 
    1.52527e-5      1352.36 
    1.52688e-5      1436.88 
    1.52849e-5      1529.69 
     1.5301e-5      1631.92 
    1.53171e-5      1744.86 
    1.53332e-5      1870.07 
    1.53493e-5      2009.37 
    1.53654e-5      2164.95 
    1.53761e-5      2278.96 
    1.53869e-5      2402.24 
    1.53976e-5       2535.8 
    1.54083e-5      2680.77 
    1.54191e-5      2838.46 
    1.54298e-5      3010.33 
    1.54405e-5      3198.06 
    1.54496e-5      3371.49 
    1.54588e-5      3559.06 
    1.54679e-5      3762.19 
     1.5477e-5      3982.49 
    1.54861e-5      4221.74 
    1.54952e-5      4481.87 
    1.55044e-5         4765 
    1.55135e-5      5073.45 
    1.55242e-5      5472.09 
    1.55349e-5      5913.49 
     1.5543e-5      6275.33 
     1.5551e-5      6665.72 
    1.55591e-5      7086.65 
    1.55671e-5      7540.02 
    1.55752e-5      8027.67 
    1.55832e-5      8551.25 
     1.5594e-5      9307.66 
    1.56047e-5      10132.8 
    1.56154e-5      11027.6 
    1.56262e-5      11990.9 
    1.56369e-5      13019.2 
     1.5653e-5        14669 
    1.56744e-5      17009.4 
    1.57029e-5      20136.9 
    1.57147e-5      21353.1 
    1.57265e-5      22469.5 
    1.57381e-5      23437.3 
    1.57496e-5      24230.8 
    1.57582e-5      24705.1 
    1.57668e-5      25065.4 
    1.57754e-5      25304.3 
    1.57828e-5      25409.3 
    1.57874e-5      25425.9 
    1.57971e-5      25340.9 
    1.58049e-5      25152.3 
    1.58128e-5      24859.9 
    1.58247e-5      24238.5 
    1.58343e-5      23583.1 
     1.5844e-5      22811.5 
    1.58569e-5      21633.1 
    1.58697e-5        20326 
    1.58923e-5      17866.8 
    1.59191e-5        14918 
    1.59352e-5      13250.7 
    1.59459e-5      12207.7 
    1.59566e-5      11228.1 
    1.59674e-5      10316.2 
    1.59781e-5      9473.46 
    1.59888e-5      8699.61 
    1.59996e-5      7992.61 
    1.60076e-5      7504.36 
    1.60157e-5      7050.32 
    1.60237e-5      6628.69 
    1.60318e-5      6237.58 
    1.60398e-5      5875.02 
    1.60479e-5      5539.09 
    1.60559e-5      5227.87 
    1.60639e-5      4939.51 
     1.6072e-5      4672.26 
      1.608e-5      4424.45 
    1.60921e-5      4085.78 
    1.61042e-5      3782.53 
    1.61122e-5       3597.9 
     1.6123e-5      3371.26 
    1.61337e-5      3164.74 
    1.61444e-5      2976.15 
    1.61552e-5      2803.59 
    1.61659e-5      2645.36 
    1.61766e-5      2499.98 
    1.61873e-5      2366.13 
    1.61981e-5      2242.65 
    1.62088e-5      2128.53 
    1.62249e-5      1972.93 
     1.6241e-5      1833.73 
    1.62571e-5      1708.73 
    1.62732e-5      1596.07 
    1.62893e-5       1494.2 
    1.63054e-5      1401.79 
    1.63215e-5       1317.7 
    1.63376e-5      1240.97 
    1.63537e-5      1170.77 
    1.63698e-5      1106.39 
    1.63885e-5      1038.02 
    1.64072e-5      975.819 
    1.64259e-5      919.072 
    1.64446e-5      867.157 
    1.64633e-5      819.542 
     1.6483e-5      773.663 
    1.65031e-5       730.59 
    1.65232e-5      691.041 
      1.655e-5      643.153 
    1.65769e-5      600.117 
     1.6601e-5      565.006 
    1.66251e-5      532.918 
    1.66493e-5      503.514 
    1.66734e-5      476.501 
    1.66976e-5      451.628 
    1.67217e-5      428.673 
    1.67579e-5      397.427 
    1.67834e-5       377.47 
    1.68102e-5       358.07 
    1.68505e-5      331.702 
    1.68907e-5      308.194 
    1.69309e-5      287.149 
    1.69712e-5      268.234 
    1.70146e-5      249.919 
    1.70595e-5      232.906 
    1.71044e-5      217.624 
    1.71493e-5      203.844 
    1.71943e-5      191.376 
    1.72394e-5      180.007 
     1.7285e-5       169.57 
    1.73305e-5      160.055 
    1.73761e-5      151.356 
    1.74065e-5      145.966 
    1.74672e-5       136.06 
    1.75258e-5      127.483 
    1.75845e-5      119.743 
    1.76431e-5      112.737 
    1.77017e-5      106.378 
    1.77641e-5      100.229 
    1.78266e-5      94.6458 
     1.7889e-5      89.5603 
    1.79514e-5      84.9165 
    1.80147e-5       80.609 
    1.80781e-5      76.6622 
    1.81414e-5      73.0377 
    1.82368e-5      68.1115 
    1.83331e-5       63.707 
    1.84294e-5      59.7913 
    1.85266e-5      56.2659 
    1.86243e-5      53.0979 
     1.8722e-5      50.2553 
    1.88207e-5      47.6701 
    1.89195e-5       45.341 
    1.90188e-5      43.2255 
    1.91193e-5      41.2903 
    1.92532e-5      38.9892 
    1.93622e-5      37.3226 
    1.94968e-5      35.4879 
    1.96317e-5      33.8647 
    1.97679e-5      32.4171 
    1.99313e-5      30.9001 
    2.00913e-5      29.6166 
    2.02854e-5      28.2908 
     2.0476e-5      27.2011 
    2.06927e-5      26.1825 
    2.09114e-5      25.3602 
    2.11321e-5      24.7132 
    2.13549e-5      24.2259 
    2.15809e-5      23.8858 
     2.1809e-5      23.6872 
    2.20193e-5      23.6235 
    2.22523e-5       23.684 
    2.24874e-5      23.8789 
    2.27248e-5      24.2123 
    2.29644e-5      24.6923 
    2.32074e-5      25.3321 
    2.34527e-5      26.1445 
    2.37003e-5      27.1493 
    2.39502e-5      28.3726 
    2.42036e-5      29.8555 
    2.43737e-5      31.0047 
    2.45451e-5      32.3044 
    2.47176e-5      33.7736 
    2.48913e-5      35.4361 
    2.50663e-5      37.3209 
    2.52425e-5      39.4627 
      2.542e-5      41.9062 
     2.5554e-5      43.9718 
     2.5688e-5       46.248 
    2.58239e-5      48.7961 
    2.59598e-5      51.6245 
    2.60963e-5      54.7952 
    2.62342e-5      58.3756 
     2.6372e-5      62.3966 
    2.65111e-5      66.9778 
    2.66043e-5      70.3841 
    2.66975e-5      74.0984 
    2.67906e-5      78.1586 
    2.68851e-5      82.6739 
    2.69796e-5      87.6426 
    2.70741e-5      93.1268 
    2.71686e-5      99.1995 
    2.72644e-5      106.048 
    2.73603e-5      113.698 
    2.74321e-5      120.039 
     2.7504e-5      126.967 
    2.75762e-5      134.594 
    2.76491e-5      143.058 
     2.7722e-5      152.393 
    2.77948e-5      162.723 
    2.78677e-5        174.2 
    2.79406e-5      187.007 
    2.80064e-5      199.882 
    2.80722e-5      214.191 
     2.8138e-5      230.151 
    2.81873e-5      243.361 
    2.82318e-5      256.302 
    2.82879e-5      274.185 
     2.8344e-5       294.06 
     2.8386e-5      310.453 
    2.84281e-5      328.286 
    2.84701e-5       347.73 
    2.85122e-5      368.983 
    2.85543e-5      392.274 
    2.85963e-5      417.868 
    2.86384e-5      446.075 
    2.86804e-5      477.257 
    2.87225e-5      511.839 
    2.87645e-5      550.325 
    2.88066e-5      593.311 
    2.88346e-5      624.814 
    2.88627e-5      658.874 
    2.88893e-5       693.85 
    2.89272e-5       748.48 
    2.89524e-5      788.501 
    2.89776e-5      831.752 
    2.90029e-5      878.574 
    2.90281e-5      929.352 
    2.90533e-5      984.522 
    2.90786e-5      1044.58 
    2.91017e-5      1104.39 
    2.91248e-5      1169.26 
     2.9148e-5      1239.73 
    2.91711e-5      1316.41 
    2.91942e-5      1399.96 
     2.9216e-5      1485.39 
     2.9237e-5      1575.13 
     2.9258e-5      1672.51 
     2.9279e-5      1778.29 
    2.93001e-5      1893.27 
    2.93211e-5      2018.33 
    2.93421e-5      2154.39 
    2.93632e-5      2302.42 
    2.93842e-5      2463.39 
    2.94052e-5      2638.28 
    2.94262e-5      2827.99 
    2.94515e-5      3076.32 
    2.94767e-5      3348.16 
    2.95019e-5      3643.86 
    2.95272e-5      3962.92 
    2.95524e-5      4303.58 
    2.95861e-5      4785.49 
    2.96618e-5      5911.18 
    2.96954e-5      6377.37 
    2.97206e-5      6688.04 
    2.97459e-5         6951 
    2.97627e-5      7093.87 
    2.97795e-5      7207.18 
    2.97964e-5      7288.42 
    2.98119e-5      7333.31 
    2.98274e-5      7348.53 
    2.98492e-5      7319.15 
    2.98678e-5      7248.42 
    2.98863e-5      7137.63 
    2.99048e-5      6989.77 
    2.99232e-5      6810.32 
    2.99505e-5      6492.54 
    2.99779e-5      6128.22 
    3.00234e-5      5461.83 
    3.00739e-5      4707.49 
    3.01019e-5      4305.79 
      3.013e-5      3926.48 
     3.0158e-5      3574.07 
     3.0179e-5       3328.8 
    3.02001e-5      3100.18 
    3.02211e-5      2888.02 
    3.02421e-5      2691.82 
    3.02632e-5      2510.83 
    3.02842e-5      2344.18 
    3.03052e-5      2190.93 
    3.03262e-5      2050.09 
    3.03473e-5      1920.67 
    3.03683e-5      1801.75 
    3.03893e-5      1692.42 
    3.04104e-5      1591.83 
    3.04314e-5      1499.22 
    3.04524e-5      1413.86 
    3.04734e-5      1335.09 
    3.04945e-5      1262.33 
     3.0519e-5       1184.3 
      3.054e-5      1122.75 
    3.05716e-5      1038.66 
    3.06031e-5      963.304 
    3.06347e-5      895.579 
    3.06662e-5      834.533 
    3.06907e-5      791.144 
    3.07188e-5      745.471 
    3.07468e-5      703.551 
    3.07749e-5      664.999 
    3.08029e-5      629.475 
    3.08309e-5       596.68 
     3.0873e-5      552.031 
     3.0915e-5      512.161 
    3.09571e-5      476.428 
    3.09992e-5      444.288 
    3.10412e-5      415.284 
    3.10833e-5      389.029 
    3.11253e-5       365.19 
    3.11674e-5      343.484 
    3.12094e-5      323.669 
    3.12515e-5      305.534 
    3.12936e-5      288.896 
    3.13496e-5      268.773 
    3.13985e-5      252.923 
    3.14474e-5      238.461 
    3.14963e-5      225.233 
    3.15452e-5      213.101 
    3.16104e-5      198.432 
    3.16629e-5      187.709 
    3.17155e-5      177.862 
    3.17856e-5      165.942 
    3.18557e-5      155.237 
    3.19188e-5      146.512 
    3.20029e-5      136.044 
     3.2087e-5      126.727 
    3.21711e-5        118.4 
    3.22552e-5      110.934 
    3.23394e-5      104.219 
    3.24249e-5      98.0656 
    3.25105e-5      92.5082 
     3.2596e-5       87.476 
    3.26815e-5      82.9087 
    3.27671e-5      78.7544 
    3.28534e-5      74.9347 
    3.29691e-5      70.3379 
    3.30848e-5      66.2635 
    3.32005e-5      62.6444 
    3.33169e-5      59.4037 
    3.34343e-5      56.5025 
    3.35516e-5      53.9241 
    3.36689e-5      51.6342 
    3.37868e-5      49.5946 
    3.39053e-5      47.7847 
    3.40238e-5      46.1952 
    3.41423e-5      44.8093 
    3.42618e-5      43.6032 
    3.43825e-5      42.5711 
    3.45031e-5      41.7159 
    3.46237e-5      41.0315 
    3.47712e-5       40.422 
    3.49021e-5      40.0906 
    3.50329e-5       39.959 
    3.51559e-5       40.024 
     3.5279e-5      40.2824 
    3.54176e-5      40.8246 
    3.55309e-5      41.4837 
    3.56377e-5       42.303 
     3.5738e-5      43.2678 
    3.58457e-5      44.5416 
    3.59509e-5      46.0559 
    3.60389e-5      47.5595 
    3.61353e-5      49.4932 
    3.62034e-5      51.0648 
    3.62791e-5      53.0407 
    3.63547e-5       55.293 
    3.64228e-5      57.5917 
    3.64833e-5      59.8824 
    3.65589e-5      63.1242 
    3.66261e-5      66.4095 
    3.66846e-5      69.6445 
    3.67403e-5      73.0852 
     3.6793e-5      76.7248 
    3.68457e-5      80.7905 
    3.68984e-5      85.3488 
    3.69482e-5      90.1786 
    3.69951e-5      95.2652 
    3.70419e-5      100.962 
    3.70888e-5       107.37 
    3.71339e-5      114.333 
    3.71774e-5      121.891 
      3.721e-5      128.201 
    3.72425e-5      135.143 
    3.72751e-5      142.807 
    3.73068e-5      151.034 
    3.73379e-5      160.007 
     3.7369e-5      169.976 
    3.74002e-5      181.098 
    3.74313e-5      193.561 
    3.74614e-5        207.1 
    3.74894e-5      221.249 
    3.75175e-5      237.144 
    3.75361e-5      248.861 
    3.75548e-5      261.599 
    3.75735e-5      275.485 
    3.75922e-5      290.666 
     3.7615e-5      311.236 
    3.76353e-5      331.609 
    3.76555e-5      354.329 
    3.76758e-5      379.788 
     3.7696e-5       408.47 
    3.77145e-5       437.97 
    3.77294e-5      464.544 
    3.77444e-5      493.925 
    3.77593e-5       526.54 
    3.77743e-5      562.897 
    3.77892e-5      603.607 
    3.78017e-5       641.38 
    3.78141e-5      683.177 
    3.78266e-5      729.576 
     3.7839e-5      781.244 
    3.78515e-5       838.95 
    3.78639e-5      903.577 
    3.78723e-5      950.997 
    3.78806e-5      1002.27 
    3.78889e-5      1057.74 
    3.78972e-5       1117.8 
    3.79055e-5      1182.86 
    3.79138e-5      1253.34 
    3.79221e-5      1329.72 
    3.79304e-5      1412.46 
    3.79387e-5      1502.08 
     3.7947e-5      1599.07 
    3.79553e-5      1703.95 
    3.79636e-5      1817.26 
    3.79719e-5      1939.49 
    3.79802e-5      2071.15 
    3.79885e-5       2212.7 
    3.79991e-5      2408.19 
    3.80097e-5      2621.19 
    3.80203e-5      2852.25 
    3.80309e-5      3101.69 
    3.80414e-5      3369.49 
    3.80533e-5      3690.09 
    3.80657e-5      4050.62 
    3.80782e-5      4432.68 
    3.80948e-5      4970.07 
    3.81446e-5      6661.69 
    3.81612e-5      7199.51 
    3.81778e-5      7693.41 
    3.81915e-5      8054.16 
    3.82052e-5      8361.73 
    3.82188e-5      8605.03 
    3.82321e-5      8777.31 
    3.82454e-5      8878.91 
     3.8257e-5      8907.42 
    3.82675e-5      8884.46 
    3.82782e-5      8813.79 
    3.82889e-5      8696.78 
    3.83024e-5      8485.93 
    3.83174e-5      8178.73 
    3.83323e-5      7804.25 
    3.83489e-5      7324.84 
    3.83655e-5      6797.14 
    3.84195e-5      4973.39 
    3.84361e-5      4437.87 
    3.84486e-5      4057.16 
     3.8461e-5      3697.88 
    3.84722e-5      3394.64 
    3.84828e-5      3126.64 
    3.84934e-5       2876.9 
     3.8504e-5      2645.45 
    3.85146e-5         2432 
    3.85258e-5      2225.02 
    3.85341e-5      2083.82 
    3.85424e-5      1952.47 
    3.85507e-5      1830.51 
     3.8559e-5      1717.46 
    3.85673e-5       1612.8 
    3.85756e-5      1516.03 
    3.85839e-5      1426.62 
    3.85922e-5      1344.08 
    3.86005e-5       1267.9 
    3.86088e-5      1197.61 
    3.86171e-5      1132.77 
    3.86254e-5      1072.92 
    3.86337e-5      1017.68 
     3.8642e-5       966.65 
    3.86545e-5      897.249 
    3.86669e-5      835.458 
    3.86794e-5      780.317 
    3.86919e-5      730.981 
    3.87043e-5      686.716 
    3.87168e-5      646.884 
     3.8731e-5      606.127 
    3.87461e-5      567.604 
    3.87612e-5      533.297 
    3.87763e-5       502.62 
    3.87914e-5      475.081 
    3.88067e-5      450.027 
    3.88222e-5      426.963 
    3.88378e-5       406.11 
    3.88534e-5        387.2 
    3.88741e-5      364.622 
    3.88939e-5      345.593 
    3.89125e-5      329.449 
    3.89312e-5      314.911 
    3.89499e-5      301.791 
    3.89779e-5      284.429 
     3.9006e-5      269.463 
     3.9034e-5      256.541 
    3.90589e-5      246.542 
    3.90838e-5      237.771 
    3.91087e-5      230.096 
     3.9144e-5       220.88 
    3.91752e-5      214.178 
    3.92063e-5      208.669 
    3.92338e-5      204.708 
     3.9268e-5      200.858 
    3.92997e-5      198.283 
    3.93435e-5      196.193 
    3.93785e-5      195.689 
    3.94194e-5       196.37 
    3.94632e-5      198.607 
     3.9507e-5      202.432 
    3.95508e-5      207.918 
    3.95946e-5       215.19 
    3.96267e-5      221.758 
    3.96588e-5      229.473 
    3.96895e-5      238.013 
    3.97201e-5      247.825 
    3.97552e-5      260.788 
    3.97844e-5      273.202 
    3.98136e-5      287.286 
    3.98428e-5      303.271 
    3.98699e-5      320.091 
     3.9895e-5      337.563 
    3.99201e-5      357.144 
    3.99453e-5      379.147 
    3.99683e-5      401.816 
    3.99894e-5      424.827 
    4.00104e-5      450.408 
    4.00314e-5      478.936 
    4.00477e-5      503.447 
    4.00653e-5      532.273 
    4.00828e-5      564.101 
    4.01003e-5      599.354 
    4.01178e-5      638.527 
    4.01353e-5      682.206 
    4.01529e-5      731.088 
    4.01704e-5      785.997 
    4.01821e-5      826.425 
    4.01937e-5      870.294 
    4.02054e-5      917.973 
    4.02171e-5      969.876 
    4.02288e-5      1026.46 
    4.02405e-5      1088.23 
    4.02521e-5      1155.74 
    4.02638e-5       1229.6 
    4.02755e-5      1310.46 
    4.02872e-5      1399.04 
    4.02989e-5      1496.08 
    4.03105e-5      1602.38 
    4.03222e-5      1718.75 
    4.03345e-5      1852.68 
    4.03468e-5      1999.59 
     4.0359e-5      2160.39 
    4.03713e-5      2335.93 
    4.03835e-5      2526.94 
    4.03935e-5       2693.3 
    4.04051e-5      2902.75 
    4.04168e-5      3127.16 
    4.04285e-5       3366.4 
     4.0446e-5      3752.02 
    4.04635e-5         4167 
    4.04869e-5       4757.1 
    4.05395e-5      6140.28 
     4.0557e-5      6577.34 
    4.05745e-5      6979.71 
    4.05909e-5      7311.49 
    4.06072e-5       7589.9 
    4.06195e-5      7757.88 
    4.06317e-5      7887.09 
    4.06453e-5      7981.67 
    4.06561e-5      8019.08 
    4.06625e-5      8025.18 
    4.06772e-5      7993.28 
    4.06923e-5      7895.88 
    4.07073e-5      7736.01 
    4.07193e-5      7566.54 
    4.07334e-5      7326.82 
    4.07474e-5      7047.53 
    4.07614e-5      6735.41 
    4.07801e-5      6280.58 
    4.08151e-5      5363.97 
    4.08443e-5      4597.71 
    4.08618e-5       4158.3 
    4.08793e-5       3743.2 
    4.08969e-5      3357.33 
    4.09085e-5      3117.83 
    4.09202e-5       2893.1 
    4.09319e-5      2683.26 
    4.09436e-5      2488.19 
    4.09553e-5      2307.55 
    4.09652e-5      2164.98 
    4.09751e-5      2032.09 
     4.0985e-5      1908.45 
     4.0995e-5      1793.59 
    4.10049e-5         1687 
    4.10148e-5      1588.19 
    4.10248e-5      1496.65 
    4.10347e-5      1411.88 
    4.10464e-5      1320.17 
     4.1058e-5      1236.39 
    4.10697e-5      1159.84 
    4.10814e-5      1089.84 
    4.10931e-5      1025.77 
    4.11048e-5      967.057 
    4.11164e-5      913.188 
    4.11281e-5      863.688 
    4.11398e-5       818.13 
    4.11515e-5      776.131 
    4.11632e-5      737.346 
    4.11807e-5      684.531 
    4.11982e-5      637.355 
    4.12157e-5      595.053 
    4.12332e-5      556.977 
    4.12508e-5      522.581 
    4.12683e-5      491.403 
    4.12858e-5      463.048 
    4.13033e-5       437.18 
    4.13221e-5      411.914 
    4.13433e-5      385.974 
    4.13646e-5      362.514 
    4.13858e-5      341.223 
     4.1407e-5      321.836 
    4.14283e-5       304.13 
    4.14546e-5      284.266 
    4.14808e-5      266.375 
    4.15071e-5      250.198 
    4.15334e-5      235.521 
    4.15597e-5       222.16 
     4.1583e-5      211.263 
    4.16122e-5      198.789 
    4.16414e-5      187.443 
    4.16706e-5      177.092 
    4.16998e-5       167.62 
     4.1729e-5       158.93 
    4.17582e-5      150.937 
     4.1802e-5      140.094 
    4.18415e-5      131.363 
    4.18809e-5      123.473 
    4.19203e-5      116.318 
    4.19597e-5      109.808 
    4.19991e-5      103.867 
    4.20489e-5      97.0823 
    4.21038e-5      90.3918 
    4.21587e-5      84.4199 
    4.22135e-5      79.0655 
    4.22684e-5      74.2448 
    4.23251e-5      69.7527 
    4.23854e-5      65.4472 
    4.24457e-5      61.5636 
     4.2506e-5      58.0475 
    4.25662e-5      54.8532 
    4.26265e-5      51.9417 
    4.26924e-5      49.0434 
    4.27583e-5      46.4067 
    4.28242e-5      44.0004 
    4.28901e-5      41.7979 
    4.29779e-5      39.1397 
    4.30619e-5      36.8574 
    4.31459e-5      34.7939 
    4.32299e-5      32.9207 
    4.33139e-5      31.2152 
    4.33979e-5      29.6578 
    4.34978e-5      27.9745 
    4.36057e-5       26.338 
    4.37136e-5      24.8646 
    4.38215e-5      23.5314 
    4.39294e-5      22.3206 
    4.40402e-5      21.1908 
    4.41565e-5      20.1112 
    4.42729e-5      19.1279 
    4.43893e-5        18.23 
    4.45445e-5      17.1492 
    4.47008e-5      16.1777 
    4.48582e-5      15.3015 
    4.50156e-5      14.5137 
     4.5173e-5      13.8029 
    4.53315e-5      13.1555 
    4.54911e-5      12.5645 
    4.56507e-5      12.0276 
    4.58901e-5      11.3125 
    4.61329e-5      10.6807 
    4.63757e-5      10.1307 
    4.66196e-5      9.65049 
    4.68658e-5      9.23109 
     4.7112e-5      8.87157 
    4.73605e-5      8.56476 
    4.76102e-5      8.31102 
    4.78599e-5      8.11254 
    4.81048e-5      7.97427 
    4.83498e-5      7.89755 
    4.85131e-5      7.88537 
    4.86842e-5      7.91153 
    4.88553e-5      7.98455 
    4.90264e-5        8.115 
    4.91547e-5      8.25911 
    4.92709e-5      8.43122 
     4.9381e-5      8.63831 
    4.94911e-5      8.89755 
    4.96012e-5        9.221 
    4.96746e-5      9.47971 
     4.9748e-5      9.77952 
    4.98346e-5      10.1966 
    4.99096e-5      10.6238 
    4.99845e-5      11.1257 
    5.00594e-5      11.7184 
    5.01094e-5      12.1741 
    5.01593e-5       12.687 
    5.02171e-5      13.3646 
    5.02664e-5      14.0258 
    5.03156e-5      14.7786 
    5.03649e-5      15.6402 
    5.04141e-5       16.632 
     5.0447e-5      17.3787 
    5.04861e-5      18.3743 
    5.05253e-5      19.5035 
    5.05547e-5      20.4528 
     5.0584e-5      21.5039 
    5.06181e-5      22.8726 
    5.06472e-5      24.1845 
    5.06762e-5      25.6542 
    5.07053e-5      27.3087 
    5.07274e-5      28.7118 
    5.07501e-5      30.3059 
    5.07729e-5       32.076 
    5.07937e-5      33.8743 
    5.08135e-5       35.773 
    5.08334e-5      37.8795 
    5.08552e-5       40.478 
    5.08757e-5      43.2375 
    5.08889e-5      45.2103 
    5.09048e-5      47.8102 
    5.09224e-5      51.0251 
    5.09353e-5      53.6617 
    5.09501e-5      57.0418 
     5.0965e-5        60.85 
    5.09789e-5      64.8664 
    5.09908e-5      68.7313 
    5.10027e-5      73.0567 
    5.10117e-5       76.651 
    5.10216e-5      81.0506 
    5.10315e-5      85.9391 
    5.10414e-5      91.3903 
    5.10511e-5       97.331 
    5.10605e-5      103.802 
      5.107e-5      111.043 
     5.1077e-5      117.044 
    5.10841e-5       123.59 
    5.10911e-5      130.695 
    5.10982e-5      138.456 
    5.11052e-5      146.938 
    5.11122e-5      156.211 
    5.11193e-5      166.351 
    5.11263e-5      177.441 
    5.11333e-5      189.568 
    5.11404e-5      202.824 
    5.11474e-5      217.307 
    5.11544e-5       233.12 
    5.11615e-5      250.371 
    5.11685e-5      269.172 
    5.11755e-5      289.638 
    5.11826e-5      311.888 
    5.11896e-5      336.041 
    5.11967e-5      362.217 
    5.12037e-5      390.539 
    5.12107e-5      421.122 
    5.12178e-5      454.082 
    5.12248e-5      489.529 
    5.12318e-5      527.564 
     5.1239e-5      569.122 
    5.12462e-5      614.006 
    5.12535e-5      661.896 
    5.12631e-5      730.517 
    5.12728e-5       804.65 
    5.12808e-5      869.979 
    5.12887e-5      939.014 
    5.13007e-5       1049.3 
    5.13122e-5      1162.44 
    5.13272e-5      1319.63 
     5.1346e-5         1528 
    5.13872e-5      2003.89 
    5.14052e-5      2202.55 
    5.14157e-5      2311.21 
    5.14307e-5      2453.36 
     5.1442e-5      2547.44 
    5.14533e-5      2628.82 
    5.14645e-5      2695.94 
    5.14758e-5      2747.49 
    5.14863e-5      2780.64 
    5.14968e-5      2798.74 
    5.15039e-5      2802.28 
     5.1514e-5      2795.09 
    5.15238e-5      2774.73 
    5.15335e-5      2741.49 
    5.15448e-5      2687.81 
     5.1556e-5      2618.74 
    5.15673e-5      2535.65 
    5.15785e-5      2440.13 
    5.15936e-5       2296.5 
    5.16093e-5      2130.27 
    5.16333e-5      1858.67 
    5.16671e-5       1470.6 
    5.16821e-5      1305.78 
    5.16933e-5      1187.86 
    5.17046e-5      1075.82 
    5.17168e-5      962.106 
    5.17249e-5      890.867 
     5.1733e-5      823.421 
    5.17419e-5      753.436 
    5.17517e-5       682.26 
    5.17591e-5      632.557 
    5.17664e-5      585.953 
    5.17738e-5      542.379 
    5.17802e-5      506.647 
    5.17882e-5      465.415 
    5.17962e-5      427.401 
    5.18042e-5      392.448 
    5.18121e-5      360.393 
    5.18201e-5      331.065 
    5.18281e-5      304.292 
     5.1836e-5      279.899 
    5.18424e-5      262.109 
    5.18494e-5      243.874 
    5.18564e-5      227.141 
    5.18635e-5      211.801 
    5.18705e-5      197.748 
    5.18775e-5      184.884 
    5.18846e-5      173.111 
    5.18916e-5      162.341 
    5.18986e-5      152.489 
    5.19057e-5      143.476 
    5.19127e-5      135.228 
    5.19204e-5      126.983 
    5.19285e-5      119.179 
    5.19365e-5      112.112 
    5.19446e-5      105.704 
    5.19526e-5       99.885 
    5.19607e-5       94.591 
    5.19687e-5      89.7658 
    5.19795e-5      83.9745 
    5.19902e-5       78.822 
    5.20009e-5      74.2187 
    5.20105e-5      70.5125 
    5.20201e-5      67.1363 
    5.20329e-5      63.0795 
    5.20456e-5      59.4588 
    5.20584e-5      56.2084 
    5.20712e-5      53.2747 
     5.2084e-5      50.6134 
    5.20967e-5      48.1878 
      5.211e-5      45.8788 
    5.21239e-5      43.6832 
    5.21446e-5      40.7276 
    5.21654e-5      38.1147 
    5.21862e-5       35.789 
    5.22069e-5      33.7066 
    5.22288e-5      31.7392 
    5.22512e-5      29.9274 
    5.22736e-5      28.2943 
     5.2296e-5      26.8158 
    5.23184e-5      25.4724 
    5.23424e-5      24.1617 
    5.23697e-5      22.8157 
    5.23971e-5      21.6028 
    5.24244e-5      20.5054 
    5.24426e-5      19.8307 
     5.2479e-5      18.6011 
    5.25182e-5      17.4338 
    5.25574e-5      16.4016 
    5.25965e-5      15.4841 
    5.26357e-5      14.6645 
    5.26749e-5       13.929 
    5.27219e-5      13.1405 
     5.2773e-5      12.3858 
     5.2824e-5       11.719 
     5.2875e-5      11.1267 
     5.2926e-5       10.598 
    5.29885e-5       10.024 
    5.30455e-5      9.56074 
    5.31025e-5      9.14618 
    5.31595e-5      8.77351 
    5.32449e-5      8.28106 
    5.33304e-5      7.85529 
    5.34159e-5      7.48428 
    5.34906e-5      7.19744 
    5.36026e-5      6.82147 
    5.37147e-5      6.49918 
    5.38267e-5       6.2205 
    5.39388e-5      5.97761 
    5.40788e-5      5.71521 
    5.42094e-5      5.50409 
      5.434e-5      5.31954 
    5.45359e-5      5.08298 
    5.47324e-5      4.88442 
    5.49288e-5      4.71624 
    5.51301e-5      4.56902 
    5.53412e-5       4.4367 
    5.56227e-5      4.28822 
     5.5961e-5      4.14306 
    5.62992e-5      4.02593 
     5.6725e-5      3.90918 
    5.72106e-5      3.80845 
    5.76972e-5      3.73472 
    5.81223e-5      3.68867 
    5.85474e-5      3.65739 
    5.90698e-5      3.63711 
    5.93559e-5       3.6339 
    5.99651e-5        3.645 
    6.05996e-5      3.68246 
    6.12164e-5      3.74559 
     6.1839e-5       3.8393 
    6.22737e-5      3.92556 
    6.27114e-5      4.03317 
    6.31522e-5      4.16728 
    6.34844e-5      4.28994 
    6.38197e-5      4.43729 
     6.4155e-5       4.6151 
    6.43801e-5      4.75664 
    6.46067e-5      4.92325 
    6.48334e-5      5.12099 
    6.50034e-5      5.29639 
    6.51734e-5      5.50264 
    6.53182e-5      5.71026 
     6.5463e-5      5.95773 
    6.55715e-5      6.17817 
    6.56801e-5      6.43857 
    6.57525e-5      6.64081 
    6.58408e-5      6.92755 
    6.59069e-5      7.17942 
    6.59731e-5      7.47186 
    6.60393e-5      7.81627 
    6.60834e-5      8.08245 
     6.6138e-5      8.46339 
    6.61869e-5      8.86486 
    6.62194e-5       9.1727 
     6.6252e-5      9.52013 
    6.62845e-5      9.91566 
    6.63171e-5      10.3706 
    6.63496e-5      10.9006 
    6.63779e-5      11.4383 
    6.64018e-5      11.9669 
    6.64258e-5      12.5811 
    6.64437e-5      13.1128 
    6.64617e-5      13.7213 
    6.64797e-5      14.4256 
    6.64916e-5      14.9605 
    6.65036e-5      15.5581 
    6.65156e-5      16.2296 
    6.65276e-5      16.9881 
    6.65395e-5      17.8495 
    6.65515e-5      18.8323 
    6.65608e-5      19.6905 
    6.65706e-5      20.7097 
    6.65805e-5      21.8551 
    6.65903e-5      23.1447 
    6.66002e-5      24.5987 
      6.661e-5      26.2398 
    6.66199e-5      28.0932 
    6.66297e-5      30.1868 
    6.66363e-5      31.7309 
    6.66429e-5      33.4051 
    6.66494e-5      35.2195 
     6.6656e-5       37.185 
    6.66626e-5       39.313 
    6.66704e-5      42.0756 
    6.66782e-5      45.1063 
     6.6686e-5      48.4268 
    6.66939e-5      52.0595 
    6.67017e-5      56.0274 
    6.67095e-5      60.3541 
    6.67173e-5      65.0631 
    6.67251e-5      70.1781 
    6.67327e-5      75.5603 
    6.67404e-5      81.3688 
    6.67479e-5      87.6236 
    6.67555e-5      94.3436 
    6.67632e-5      101.546 
    6.67707e-5      109.247 
    6.67784e-5      117.459 
     6.6786e-5      126.194 
    6.67936e-5      135.459 
     6.6805e-5      150.359 
    6.68164e-5       166.46 
    6.68278e-5      183.741 
    6.68392e-5      202.155 
    6.68508e-5      222.028 
    6.68669e-5      251.184 
    6.68851e-5       285.86 
    6.69337e-5      382.208 
     6.6952e-5      416.774 
    6.69702e-5      448.714 
    6.69842e-5      470.695 
    6.69982e-5      489.954 
    6.70104e-5      504.136 
    6.70225e-5      515.661 
    6.70353e-5      524.669 
    6.70493e-5      530.686 
    6.70624e-5      532.545 
    6.70718e-5        531.6 
    6.70839e-5      527.572 
    6.70973e-5      519.578 
    6.71107e-5      508.032 
    6.71229e-5      494.674 
    6.71338e-5      480.529 
    6.71496e-5      456.982 
    6.71679e-5      426.063 
    6.71849e-5      394.546 
    6.72202e-5      325.234 
    6.72445e-5      277.547 
    6.72623e-5      244.183 
    6.72756e-5      220.439 
    6.72877e-5      200.131 
    6.72991e-5      182.012 
    6.73105e-5       165.03 
    6.73219e-5      149.227 
    6.73333e-5      134.621 
    6.73409e-5      125.549 
    6.73485e-5      117.002 
    6.73561e-5      108.972 
    6.73637e-5      101.449 
    6.73713e-5       94.417 
    6.73789e-5      87.8613 
    6.73865e-5       81.764 
    6.73941e-5      76.1062 
    6.74017e-5      70.8677 
    6.74106e-5       65.193 
    6.74174e-5      61.2807 
    6.74241e-5      57.6464 
    6.74309e-5      54.2751 
    6.74376e-5      51.1522 
    6.74443e-5      48.2629 
    6.74511e-5      45.5931 
      6.746e-5      42.3505 
     6.7469e-5      39.4416 
    6.74769e-5      37.1316 
    6.74838e-5      35.3089 
    6.74906e-5      33.6355 
    6.74974e-5      32.1001 
    6.75077e-5      30.0326 
    6.75179e-5       28.218 
    6.75282e-5       26.626 
    6.75384e-5      25.2292 
    6.75487e-5      24.0031 
     6.7559e-5       22.926 
    6.75692e-5      21.9787 
    6.75795e-5      21.1442 
    6.75887e-5      20.4772 
    6.76003e-5      19.7357 
     6.7612e-5      19.0889 
    6.76294e-5      18.2665 
    6.76468e-5      17.5882 
    6.76643e-5      17.0247 
    6.76759e-5      16.7014 
    6.76992e-5      16.1568 
    6.77224e-5      15.7218 
    6.77457e-5      15.3729 
    6.77689e-5      15.0934 
    6.78017e-5      14.7945 
    6.78345e-5      14.5856 
    6.78672e-5      14.4505 
       6.79e-5      14.3779 
    6.79357e-5      14.3605 
    6.79893e-5      14.4401 
     6.8043e-5      14.6331 
    6.80966e-5      14.9311 
    6.81502e-5      15.3312 
     6.8203e-5      15.8274 
    6.82543e-5      16.4111 
    6.83055e-5      17.1046 
    6.83568e-5       17.921 
    6.84081e-5      18.8781 
    6.84422e-5      19.6056 
    6.84848e-5      20.6261 
     6.8523e-5      21.6665 
    6.85612e-5      22.8436 
    6.85993e-5      24.1803 
    6.86375e-5      25.7052 
    6.86735e-5      27.3466 
    6.87051e-5      28.9814 
    6.87367e-5      30.8314 
    6.87683e-5      32.9374 
    6.87893e-5      34.5088 
    6.88104e-5      36.2362 
    6.88314e-5      38.1426 
     6.8857e-5      40.7384 
     6.8874e-5      42.6698 
    6.88911e-5       44.789 
    6.89081e-5      47.1249 
    6.89251e-5      49.7129 
    6.89422e-5      52.5968 
    6.89592e-5      55.8307 
    6.89735e-5      58.8534 
    6.89907e-5      62.9599 
    6.90021e-5      66.0252 
    6.90136e-5      69.3961 
    6.90251e-5      73.1171 
    6.90365e-5      77.2397 
     6.9048e-5      81.8241 
    6.90595e-5      86.9397 
    6.90704e-5      92.3693 
    6.90813e-5       98.431 
    6.90922e-5      105.215 
    6.91004e-5      110.838 
    6.91085e-5      116.972 
    6.91167e-5       123.67 
    6.91249e-5      130.988 
    6.91331e-5      138.989 
    6.91412e-5      147.737 
    6.91494e-5      157.287 
    6.91575e-5      167.687 
    6.91656e-5      179.053 
    6.91738e-5       191.47 
    6.91819e-5      205.027 
      6.919e-5      219.818 
    6.91982e-5      235.941 
    6.92063e-5      253.497 
    6.92144e-5      272.591 
    6.92226e-5      293.329 
    6.92307e-5      315.818 
    6.92372e-5      335.143 
    6.92448e-5      359.265 
    6.92523e-5      385.168 
    6.92599e-5      412.934 
    6.92675e-5      442.643 
    6.92751e-5      474.369 
    6.92827e-5       508.18 
    6.92903e-5      544.139 
    6.92996e-5      591.333 
    6.93107e-5      651.713 
    6.93217e-5      716.944 
    6.93328e-5      787.037 
    6.93426e-5      853.629 
    6.93556e-5      947.115 
    6.93686e-5       1046.7 
    6.93847e-5      1177.09 
    6.94042e-5      1344.89 
    6.94623e-5         1867 
    6.94814e-5      2029.45 
    6.94926e-5      2119.41 
      6.951e-5      2245.91 
     6.9523e-5       2329.2 
     6.9536e-5      2400.85 
    6.95494e-5      2461.21 
    6.95637e-5      2508.79 
    6.95751e-5      2533.62 
    6.95896e-5      2547.88 
    6.95928e-5      2548.38 
    6.96062e-5      2539.95 
    6.96175e-5      2519.92 
    6.96329e-5      2473.87 
    6.96454e-5      2421.65 
    6.96589e-5       2351.3 
    6.96721e-5       2270.2 
    6.96895e-5      2147.29 
    6.97068e-5      2009.63 
    6.97241e-5      1861.37 
    6.97805e-5      1355.54 
    6.98013e-5      1176.74 
    6.98169e-5      1050.12 
     6.9829e-5      957.071 
    6.98421e-5      863.212 
    6.98548e-5      777.348 
    6.98636e-5      721.983 
    6.98726e-5      668.104 
    6.98826e-5      612.639 
    6.98934e-5      556.592 
    6.99016e-5      517.512 
    6.99097e-5        480.9 
    6.99178e-5      446.682 
    6.99254e-5      416.832 
    6.99352e-5      381.294 
     6.9943e-5      354.885 
     6.9952e-5      327.115 
    6.99609e-5      301.639 
    6.99693e-5      279.672 
    6.99774e-5       260.11 
    6.99856e-5      242.112 
    6.99937e-5      225.573 
    7.00018e-5      210.391 
    7.00072e-5      200.975 
    7.00159e-5      187.005 
    7.00246e-5      174.284 
    7.00332e-5      162.708 
    7.00419e-5      152.178 
    7.00506e-5        142.6 
    7.00592e-5      133.889 
    7.00679e-5      125.963 
    7.00766e-5      118.749 
    7.00862e-5      111.508 
    7.00958e-5      104.972 
    7.01054e-5      99.0623 
     7.0115e-5      93.7113 
    7.01246e-5      88.8573 
    7.01342e-5      84.4451 
     7.0147e-5      79.1656 
    7.01598e-5       74.484 
    7.01726e-5      70.3143 
    7.01864e-5      66.3141 
    7.02011e-5      62.5078 
    7.02159e-5      59.1206 
    7.02306e-5      56.0891 
    7.02454e-5      53.3608 
    7.02602e-5      50.8929 
    7.02749e-5      48.6498 
    7.02971e-5       45.644 
    7.03213e-5      42.7673 
    7.03455e-5      40.2451 
    7.03697e-5      38.0171 
     7.0394e-5      36.0363 
    7.04182e-5      34.2657 
    7.04482e-5      32.3193 
    7.04811e-5      30.4504 
     7.0514e-5      28.8137 
    7.05469e-5      27.3725 
    7.05798e-5      26.0972 
    7.06186e-5      24.7746 
    7.06523e-5       23.761 
    7.06861e-5      22.8559 
    7.07366e-5      21.6717 
    7.07872e-5      20.6625 
    7.08378e-5      19.7989 
    7.08915e-5      19.0153 
    7.09514e-5      18.2762 
    7.10114e-5      17.6575 
    7.10714e-5      17.1399 
    7.11113e-5      16.8435 
    7.11913e-5      16.3509 
    7.12764e-5      15.9513 
    7.13615e-5      15.6592 
    7.14467e-5      15.4584 
    7.15318e-5      15.3366 
    7.16453e-5      15.2812 
    7.17768e-5      15.3513 
    7.19082e-5      15.5505 
    7.20397e-5      15.8699 
    7.21711e-5      16.3059 
    7.23025e-5       16.859 
     7.2427e-5      17.4955 
    7.25479e-5       18.227 
    7.26688e-5      19.0806 
    7.27897e-5      20.0714 
    7.29106e-5      21.2191 
    7.30198e-5      22.4099 
    7.31055e-5      23.4616 
    7.31912e-5      24.6307 
    7.32769e-5      25.9333 
    7.33626e-5      27.3889 
    7.34483e-5      29.0205 
    7.35299e-5      30.7626 
    7.36115e-5      32.7178 
    7.36931e-5      34.9209 
    7.37747e-5      37.4148 
    7.38291e-5      39.2646 
    7.39014e-5      41.9892 
    7.39549e-5      44.2325 
    7.40084e-5      46.6961 
    7.40619e-5      49.4097 
    7.41154e-5      52.4087 
    7.41689e-5      55.7348 
    7.42216e-5      59.3794 
    7.42743e-5      63.4466 
    7.43269e-5      68.0054 
    7.43797e-5      73.1392 
    7.44148e-5      76.9309 
    7.44499e-5      81.0591 
    7.44973e-5      87.2411 
     7.4529e-5      91.8057 
    7.45606e-5      96.7745 
    7.45922e-5      102.198 
    7.46238e-5      108.134 
    7.46555e-5      114.652 
    7.46871e-5      121.831 
    7.47215e-5      130.513 
    7.47494e-5      138.316 
    7.47774e-5        146.9 
    7.48053e-5      156.376 
    7.48332e-5      166.877 
    7.48518e-5      174.523 
    7.48799e-5       187.18 
     7.4901e-5      197.671 
    7.49221e-5      209.137 
    7.49432e-5      221.708 
    7.49643e-5      235.532 
    7.49853e-5      250.786 
    7.50064e-5      267.675 
    7.50275e-5      286.441 
    7.50486e-5      307.369 
    7.50697e-5      330.794 
    7.50893e-5      355.255 
    7.51083e-5       381.57 
    7.51273e-5      410.949 
    7.51463e-5      443.825 
    7.51589e-5      467.922 
    7.51715e-5      493.946 
    7.51849e-5      523.695 
     7.5199e-5      557.766 
     7.5213e-5      594.924 
    7.52271e-5      635.443 
    7.52411e-5      679.609 
    7.52552e-5      727.716 
    7.52692e-5      780.059 
    7.52833e-5      836.929 
    7.52952e-5      889.038 
      7.531e-5      958.445 
    7.53247e-5      1033.67 
    7.53395e-5      1114.95 
    7.53542e-5      1202.43 
     7.5369e-5      1296.21 
     7.5383e-5      1391.37 
    7.54041e-5      1544.57 
    7.54252e-5      1709.56 
    7.54463e-5      1884.98 
    7.54744e-5      2131.45 
    7.55376e-5      2702.07 
    7.55657e-5       2940.4 
    7.55868e-5      3103.18 
    7.56037e-5      3219.93 
    7.56234e-5      3337.63 
     7.5643e-5      3432.24 
    7.56627e-5      3501.01 
     7.5679e-5      3536.93 
    7.56985e-5      3553.63 
    7.57005e-5      3553.72 
    7.57153e-5      3544.77 
    7.57277e-5      3524.57 
    7.57455e-5      3475.64 
    7.57634e-5      3404.43 
    7.57812e-5      3312.68 
     7.5799e-5       3202.6 
    7.58222e-5      3036.22 
    7.58454e-5      2849.31 
    7.58749e-5      2591.92 
    7.59382e-5      2022.07 
    7.59663e-5      1781.73 
    7.59873e-5      1612.42 
    7.60084e-5      1454.37 
    7.60225e-5      1355.79 
    7.60386e-5      1249.39 
    7.60523e-5      1165.09 
     7.6066e-5      1086.17 
    7.60797e-5      1012.55 
    7.60934e-5      944.085 
    7.61096e-5      869.683 
    7.61237e-5      810.306 
    7.61377e-5      755.598 
    7.61518e-5      705.273 
    7.61658e-5       659.04 
    7.61799e-5      616.605 
    7.61939e-5      577.681 
     7.6208e-5      541.987 
    7.62213e-5      510.824 
     7.6234e-5       483.57 
    7.62466e-5      458.344 
    7.62656e-5       423.95 
    7.62846e-5      393.245 
    7.63035e-5      365.774 
    7.63232e-5      340.275 
    7.63443e-5      315.895 
    7.63654e-5      294.152 
    7.63864e-5      274.692 
    7.64075e-5      257.211 
    7.64286e-5      241.452 
    7.64497e-5      227.198 
    7.64708e-5       214.26 
    7.64918e-5      202.481 
    7.65129e-5      191.724 
     7.6534e-5      181.872 
    7.65563e-5      172.321 
    7.65716e-5      166.245 
    7.66022e-5      155.105 
    7.66327e-5       145.15 
    7.66633e-5      136.218 
    7.66896e-5      129.232 
     7.6716e-5       122.83 
    7.67511e-5      115.092 
    7.67863e-5      108.151 
    7.68214e-5      101.902 
    7.68565e-5      96.2545 
    7.68917e-5       91.135 
    7.69268e-5        86.48 
    7.69672e-5      81.6311 
    7.70129e-5      76.7169 
    7.70533e-5      72.8067 
     7.7106e-5        68.24 
    7.71587e-5      64.1951 
    7.72114e-5      60.5981 
    7.72623e-5      57.4891 
    7.73097e-5      54.8788 
    7.73624e-5      52.2608 
    7.74116e-5       50.055 
    7.74748e-5      47.5137 
    7.75474e-5      44.9506 
    7.76088e-5      43.0364 
    7.76702e-5      41.3267 
    7.77358e-5      39.7015 
    7.78013e-5      38.2571 
    7.78996e-5      36.3848 
    7.79884e-5      34.9555 
    7.80724e-5      33.7997 
    7.81564e-5      32.8115 
    7.82685e-5      31.7219 
    7.83805e-5      30.8595 
     7.8505e-5      30.1332 
    7.86295e-5      29.6214 
     7.8754e-5      29.3012 
    7.89034e-5       29.146 
    7.89283e-5      29.1429 
    7.90404e-5      29.2056 
    7.91524e-5      29.3893 
    7.93205e-5      29.8846 
    7.94886e-5      30.6421 
    7.96567e-5      31.6685 
    7.97687e-5      32.5088 
    7.99243e-5      33.8951 
    8.00737e-5      35.4852 
    8.02231e-5      37.3561 
    8.03725e-5      39.5414 
    8.04721e-5      41.1947 
    8.05717e-5      43.0243 
    8.06825e-5      45.2896 
    8.08045e-5      48.0985 
     8.0896e-5      50.4487 
    8.09876e-5      53.0339 
    8.10791e-5      55.8822 
    8.11594e-5      58.6242 
     8.1259e-5      62.3796 
    8.13586e-5      66.5809 
    8.14582e-5      71.2953 
    8.15329e-5      75.2159 
    8.16076e-5      79.5105 
    8.16823e-5      84.2255 
     8.1757e-5      89.4148 
    8.18317e-5      95.1413 
    8.19064e-5      101.478 
    8.19736e-5      107.775 
    8.20408e-5      114.709 
    8.21081e-5      122.367 
    8.21753e-5      130.849 
    8.22425e-5      140.272 
    8.23097e-5      150.776 
     8.2377e-5      162.524 
    8.24218e-5      171.141 
    8.24666e-5      180.462 
    8.25114e-5      190.564 
    8.25563e-5      201.529 
    8.26011e-5      213.455 
    8.26509e-5      227.963 
     8.2692e-5      241.046 
     8.2733e-5       255.25 
    8.27741e-5      270.696 
    8.28152e-5      287.519 
    8.28551e-5      305.291 
    8.28924e-5      323.392 
    8.29298e-5       343.03 
    8.29671e-5      364.358 
    8.30045e-5       387.54 
    8.30418e-5      412.757 
    8.30792e-5      440.202 
    8.31165e-5      470.077 
    8.31539e-5      502.594 
    8.31912e-5      537.967 
    8.32286e-5      576.404 
    8.32659e-5      618.099 
    8.33033e-5      663.216 
    8.33406e-5      711.874 
     8.3378e-5      764.121 
    8.34153e-5      819.912 
    8.34676e-5      903.623 
    8.35224e-5      997.307 
    8.36593e-5      1242.82 
    8.37191e-5      1343.78 
    8.37639e-5      1411.48 
    8.38088e-5      1469.11 
    8.38386e-5      1500.59 
    8.38685e-5      1525.68 
    8.38984e-5      1543.83 
     8.3926e-5      1554.01 
    8.39554e-5      1557.74 
    8.39877e-5      1553.21 
    8.40176e-5      1541.07 
    8.40475e-5      1521.58 
    8.40875e-5      1484.97 
    8.41274e-5      1437.59 
    8.41623e-5      1388.76 
    8.42071e-5      1318.13 
    8.42669e-5      1214.78 
    8.43864e-5      999.589 
    8.44362e-5      913.782 
     8.4486e-5      832.896 
    8.45358e-5      757.879 
    8.45731e-5      705.749 
    8.46105e-5      657.217 
    8.46479e-5      612.228 
    8.46852e-5      570.661 
    8.47226e-5       532.35 
    8.47599e-5      497.099 
    8.47972e-5      464.698 
    8.48346e-5      434.933 
     8.4872e-5      407.594 
    8.49093e-5      382.475 
    8.49466e-5      359.386 
     8.4984e-5      338.147 
    8.50213e-5      318.591 
    8.50587e-5      300.566 
    8.50836e-5      289.331 
    8.51334e-5      268.567 
    8.51832e-5      249.853 
     8.5223e-5      236.192 
    8.52629e-5      223.579 
    8.53027e-5      211.914 
    8.53625e-5      196.005 
    8.54222e-5      181.776 
     8.5482e-5      169.008 
    8.55467e-5      156.609 
     8.5614e-5      145.103 
    8.56812e-5      134.807 
    8.57484e-5      125.561 
    8.58156e-5      117.232 
    8.58854e-5       109.44 
    8.59601e-5      101.924 
    8.60348e-5      95.1606 
    8.61095e-5      89.0537 
    8.61842e-5      83.5225 
    8.62589e-5      78.4978 
    8.63336e-5      73.9206 
    8.64083e-5      69.7398 
     8.6483e-5      65.9116 
    8.65577e-5      62.3979 
    8.66573e-5      58.1456 
    8.67441e-5      54.7941 
     8.6831e-5      51.7347 
    8.69178e-5      48.9345 
    8.70046e-5      46.3653 
    8.71204e-5      43.2564 
    8.72325e-5      40.5505 
    8.73445e-5       38.105 
    8.74566e-5      35.8888 
    8.75686e-5      33.8748 
    8.76744e-5      32.1368 
    8.77803e-5      30.5402 
     8.7939e-5      28.3784 
    8.80977e-5      26.4604 
    8.82565e-5       24.753 
    8.84152e-5      23.2286 
    8.85833e-5      21.7874 
    8.87514e-5      20.5007 
    8.89194e-5      19.3498 
    8.90875e-5      18.3189 
    8.92556e-5      17.3955 
     8.9418e-5      16.5955 
    8.95775e-5      15.8907 
     8.9737e-5      15.2612 
    8.98966e-5      14.7043 
    9.00561e-5      14.2194 
    9.02371e-5      13.7601 
    9.03864e-5      13.4611 
    9.05357e-5      13.2463 
    9.06476e-5      13.1529 
    9.07223e-5      13.1307 
     9.0809e-5      13.1545 
    9.09077e-5      13.2643 
    9.09818e-5      13.4222 
    9.10559e-5      13.6666 
    9.11053e-5      13.8922 
    9.11547e-5      14.1822 
    9.12038e-5      14.5522 
    9.12529e-5      15.0293 
    9.12856e-5      15.4254 
    9.13183e-5      15.9034 
    9.13511e-5      16.4883 
    9.13756e-5      17.0189 
    9.14002e-5      17.6527 
    9.14223e-5      18.3364 
    9.14394e-5      18.9621 
    9.14566e-5      19.6902 
    9.14738e-5      20.5444 
    9.14909e-5      21.5537 
    9.15024e-5      22.3303 
    9.15138e-5      23.2045 
    9.15253e-5      24.1909 
    9.15367e-5       25.306 
    9.15482e-5      26.5688 
    9.15596e-5      28.0004 
    9.15711e-5      29.6248 
    9.15825e-5      31.4687 
    9.15911e-5      33.0135 
    9.15997e-5       34.712 
    9.16101e-5      37.0032 
    9.16205e-5      39.5711 
    9.16309e-5      42.4462 
    9.16414e-5       45.661 
    9.16518e-5      49.2501 
    9.16622e-5      53.2499 
    9.16726e-5      57.6984 
    9.16831e-5      62.6351 
    9.16935e-5      68.1003 
    9.17039e-5      74.1352 
    9.17109e-5       78.495 
     9.1719e-5      83.9285 
    9.17271e-5      89.7647 
    9.17351e-5      96.0216 
    9.17432e-5      102.717 
    9.17513e-5      109.866 
    9.17594e-5      117.484 
    9.17675e-5      125.585 
    9.17796e-5       138.64 
    9.17917e-5      152.775 
    9.18038e-5      168.056 
    9.18158e-5      184.484 
    9.18279e-5      202.046 
      9.184e-5      220.709 
    9.18528e-5      241.772 
    9.18657e-5      263.939 
     9.1885e-5      298.991 
    9.19072e-5      341.348 
    9.19616e-5      447.551 
    9.19822e-5       485.56 
    9.20028e-5      520.486 
    9.20221e-5      549.356 
     9.2035e-5      566.047 
    9.20478e-5      580.402 
    9.20607e-5      592.205 
    9.20736e-5      601.274 
    9.20865e-5       607.47 
    9.20988e-5      610.623 
    9.21069e-5       611.18 
    9.21184e-5      609.914 
    9.21315e-5      605.541 
     9.2145e-5      597.842 
    9.21579e-5      587.618 
    9.21708e-5      574.733 
    9.21836e-5      559.385 
     9.2201e-5      535.167 
    9.22184e-5       507.52 
    9.22377e-5      473.636 
    9.22635e-5      424.961 
    9.23131e-5      327.831 
    9.23331e-5      290.059 
    9.23512e-5      257.595 
    9.23633e-5      237.045 
    9.23774e-5      214.319 
    9.23894e-5      195.987 
    9.24015e-5      178.765 
    9.24136e-5      162.677 
    9.24256e-5      147.733 
    9.24377e-5      133.925 
    9.24498e-5      121.233 
    9.24578e-5      113.376 
    9.24659e-5      105.988 
    9.24739e-5      99.0551 
     9.2482e-5      92.5631 
      9.249e-5      86.4954 
    9.25008e-5      78.9971 
     9.2509e-5      73.7479 
    9.25172e-5      68.8786 
    9.25254e-5      64.3694 
    9.25337e-5      60.2002 
    9.25419e-5      56.3512 
    9.25501e-5      52.8029 
    9.25583e-5      49.5361 
    9.25665e-5      46.5322 
    9.25747e-5      43.7729 
     9.2583e-5       41.241 
    9.25924e-5      38.5959 
    9.26024e-5      36.0589 
    9.26124e-5      33.7813 
    9.26225e-5      31.7377 
    9.26325e-5      29.9049 
    9.26425e-5      28.2611 
    9.26525e-5      26.7867 
    9.26626e-5      25.4634 
    9.26726e-5       24.275 
    9.26793e-5      23.5503 
    9.26926e-5      22.2447 
    9.27052e-5      21.1736 
    9.27177e-5      20.2297 
    9.27302e-5      19.3951 
    9.27428e-5      18.6542 
    9.27616e-5      17.6904 
    9.27804e-5      16.8713 
    9.27992e-5       16.168 
     9.2818e-5      15.5577 
    9.28431e-5       14.859 
    9.28681e-5      14.2633 
    9.28932e-5       13.748 
    9.29208e-5      13.2551 
    9.29483e-5      12.8235 
     9.2985e-5       12.324 
    9.30218e-5      11.8934 
    9.30585e-5       11.518 
    9.31136e-5      11.0364 
    9.31686e-5      10.6317 
    9.32368e-5       10.212 
    9.33114e-5      9.83058 
    9.33861e-5       9.5114 
    9.34857e-5       9.1587 
    9.35852e-5      8.86866 
    9.37104e-5      8.56964 
    9.38355e-5      8.32499 
    9.39606e-5       8.1213 
    9.40858e-5       7.9495 
    9.42597e-5      7.75213 
    9.44337e-5      7.59273 
    9.46909e-5      7.41103 
    9.49055e-5      7.29929 
    9.52182e-5      7.18998 
    9.55239e-5      7.13732 
    9.56979e-5      7.12981 
    9.59446e-5      7.14686 
    9.61958e-5      7.19856 
    9.64381e-5      7.28339 
    9.67158e-5      7.42743 
    9.69935e-5      7.62895 
     9.7227e-5      7.85089 
    9.74384e-5      8.10091 
    9.76497e-5      8.40689 
    9.77931e-5      8.65233 
    9.79366e-5      8.93364 
      9.808e-5      9.25656 
    9.82234e-5      9.62821 
    9.83632e-5      10.0454 
    9.85029e-5      10.5271 
    9.86426e-5       11.086 
    9.87357e-5      11.5093 
    9.88288e-5      11.9798 
     9.8922e-5      12.5045 
    9.90345e-5      13.2227 
    9.91334e-5      13.9437 
    9.92324e-5      14.7645 
    9.93313e-5      15.7045 
    9.93972e-5       16.409 
    9.94632e-5      17.1857 
     9.9539e-5      18.1815 
    9.96033e-5      19.1247 
    9.96676e-5      20.1733 
    9.97319e-5      21.3435 
    9.97962e-5      22.6552 
    9.98557e-5      24.0162 
    9.99056e-5      25.2845 
    9.99555e-5      26.6851 
   0.000100005      28.2376 
   0.000100055       29.965 
   0.000100105      31.8953 
   0.000100155      34.0618 
   0.000100193      35.8664 
    0.00010023       37.848 
   0.000100268      40.0313 
   0.000100305      42.4454 
   0.000100341      45.0018 
   0.000100377      47.8376 
   0.000100412      50.9969 
   0.000100448      54.5331 
   0.000100484       58.512 
   0.000100508      61.4324 
   0.000100531      64.5924 
   0.000100555      68.0409 
   0.000100579      71.8169 
   0.000100602      75.9665 
   0.000100626      80.5447 
   0.000100649      85.6181 
   0.000100673       91.267 
   0.000100694      96.9236 
   0.000100713      102.479 
   0.000100732      108.606 
   0.000100751       115.39 
    0.00010077      122.932 
   0.000100789      131.351 
   0.000100803      138.324 
   0.000100817      145.939 
   0.000100831      154.271 
   0.000100848      165.177 
    0.00010086      173.797 
   0.000100872      183.149 
   0.000100884      193.308 
   0.000100896      204.353 
   0.000100908      216.371 
    0.00010092      229.457 
   0.000100932      243.713 
   0.000100945      260.202 
   0.000100958      278.261 
    0.00010097      298.034 
   0.000100983      319.675 
   0.000100996      343.341 
   0.000101009      371.204 
   0.000101024      402.906 
   0.000101038      437.762 
   0.000101052      475.997 
   0.000101066      517.828 
    0.00010108      563.457 
   0.000101094      613.063 
   0.000101109      666.797 
   0.000101123       724.77 
   0.000101137      787.048 
   0.000101151      853.644 
   0.000101168      939.181 
   0.000101185      1030.63 
   0.000101202      1127.61 
   0.000101225      1267.45 
   0.000101256      1463.61 
   0.000101315      1854.33 
   0.000101344      2030.36 
   0.000101362       2138.7 
   0.000101381      2237.08 
   0.000101402      2331.16 
   0.000101423       2407.8 
   0.000101441      2459.76 
    0.00010146      2494.67 
   0.000101479       2511.9 
   0.000101487      2513.36 
   0.000101506      2503.23 
   0.000101524      2476.65 
   0.000101542      2432.31 
   0.000101561      2371.92 
   0.000101579      2294.82 
   0.000101598      2204.21 
   0.000101617       2102.2 
   0.000101646      1932.82 
   0.000101683      1688.79 
   0.000101731      1373.25 
   0.000101758      1208.07 
   0.000101779      1085.52 
   0.000101798      980.843 
   0.000101816      883.243 
   0.000101831      814.936 
   0.000101845      750.917 
   0.000101859      691.199 
   0.000101873      635.738 
   0.000101887      584.443 
   0.000101901      537.177 
   0.000101915      493.775 
    0.00010193      454.046 
   0.000101944      417.779 
   0.000101958      384.753 
   0.000101972      354.743 
   0.000101986      327.519 
   0.000102001       301.59 
   0.000102011      285.368 
   0.000102027      263.134 
   0.000102042      243.196 
   0.000102057      225.317 
   0.000102073      209.277 
   0.000102085      197.558 
   0.000102097      186.805 
    0.00010211      176.929 
   0.000102122      167.849 
   0.000102134      159.489 
   0.000102153      148.155 
   0.000102171      138.088 
   0.000102189       129.48 
   0.000102207      121.742 
   0.000102224      114.761 
   0.000102242       108.44 
    0.00010226      102.696 
   0.000102277      97.4591 
   0.000102301      91.1609 
   0.000102325      85.5368 
   0.000102348      80.4884 
   0.000102372      75.9352 
   0.000102395      71.8108 
   0.000102419        68.06 
   0.000102443      64.6365 
   0.000102466      61.4803 
    0.00010249      58.5636 
   0.000102526      54.6175 
   0.000102562      51.1057 
   0.000102598      47.9573 
   0.000102635       45.137 
   0.000102663       43.142 
   0.000102695      41.0492 
   0.000102727      39.1333 
   0.000102775      36.5489 
   0.000102823      34.2636 
   0.000102872      32.2327 
    0.00010292      30.4196 
   0.000102968      28.7945 
   0.000103017      27.3177 
   0.000103066      25.9595 
    0.00010312      24.6504 
   0.000103173      23.4726 
   0.000103239      22.1764 
   0.000103299      21.1169 
   0.000103365      20.0873 
   0.000103436      19.0992 
   0.000103515      18.1272 
   0.000103602      17.1907 
   0.000103692      16.3578 
   0.000103784      15.6171 
   0.000103875      14.9722 
   0.000103967      14.4092 
   0.000104075       13.838 
   0.000104198      13.2835 
   0.000104322      12.8204 
   0.000104445       12.435 
   0.000104566      12.1218 
   0.000104685      11.8688 
   0.000104863      11.5756 
    0.00010504       11.372 
   0.000105218      11.2455 
   0.000105396      11.1874 
   0.000105455      11.1822 
   0.000105686      11.2251 
   0.000105917      11.3647 
   0.000106148      11.5993 
   0.000106379      11.9305 
    0.00010661      12.3645 
   0.000106829      12.8795 
   0.000107041      13.4898 
   0.000107183      13.9652 
   0.000107324      14.5031 
   0.000107466      15.1113 
   0.000107607       15.799 
   0.000107749      16.5779 
   0.000107862      17.2722 
   0.000107987      18.1357 
   0.000108112      19.1086 
   0.000108238      20.2086 
   0.000108363      21.4573 
   0.000108488      22.8816 
   0.000108589       24.178 
    0.00010869      25.6316 
   0.000108791      27.2692 
   0.000108892      29.1237 
   0.000108959      30.5003 
   0.000109051       32.605 
   0.000109127      34.5349 
   0.000109202      36.6862 
   0.000109278      39.0945 
   0.000109353       41.803 
   0.000109429      44.8646 
     0.0001095      48.1594 
   0.000109548       50.599 
   0.000109596      53.2612 
   0.000109644      56.1743 
   0.000109691      59.3716 
   0.000109739      62.8921 
   0.000109787      66.7818 
   0.000109837      71.3113 
   0.000109876      75.2357 
   0.000109915      79.5349 
   0.000109955      84.2594 
   0.000109994      89.4684 
    0.00011002      93.2442 
    0.00011006      99.5897 
   0.000110101      106.677 
   0.000110131      112.552 
   0.000110161      118.973 
   0.000110191      126.013 
   0.000110221      133.755 
   0.000110251      142.296 
   0.000110282      151.752 
   0.000110312      162.259 
   0.000110342      173.979 
   0.000110372      187.102 
   0.000110392      196.742 
   0.000110412      207.184 
   0.000110433      218.514 
   0.000110453      230.831 
   0.000110473      244.242 
   0.000110493      258.868 
   0.000110513      274.843 
   0.000110533      292.312 
   0.000110553      311.437 
   0.000110573      332.392 
   0.000110593      355.363 
   0.000110614      380.549 
   0.000110634       408.16 
   0.000110654       438.41 
   0.000110676      474.995 
   0.000110694      507.699 
   0.000110712      543.058 
    0.00011073      581.211 
   0.000110748      622.278 
    0.00011077      674.423 
   0.000110788      723.029 
   0.000110807      774.859 
   0.000110834      858.578 
   0.000110864      956.013 
   0.000110894      1060.45 
   0.000110933       1209.4 
   0.000111016      1526.03 
   0.000111049      1645.31 
   0.000111082      1752.64 
   0.000111109      1826.19 
   0.000111135      1886.76 
   0.000111155      1922.46 
   0.000111175      1949.08 
   0.000111195      1966.34 
   0.000111219       1973.4 
    0.00011124      1967.35 
   0.000111264      1946.68 
   0.000111283      1920.15 
   0.000111309      1871.76 
   0.000111335      1809.89 
    0.00011136       1736.4 
   0.000111393      1626.93 
   0.000111426      1506.34 
   0.000111519      1151.82 
   0.000111556      1015.96 
   0.000111583       922.86 
   0.000111612      832.822 
   0.000111632       772.91 
   0.000111652      716.798 
   0.000111672      664.514 
   0.000111692      616.017 
   0.000111712       571.21 
   0.000111732      529.953 
   0.000111752      492.073 
   0.000111771      459.036 
    0.00011179      430.225 
   0.000111808      403.671 
   0.000111826      379.219 
   0.000111844      356.711 
   0.000111862      335.996 
    0.00011188       316.93 
   0.000111898      299.376 
   0.000111916      283.204 
   0.000111934      268.294 
   0.000111953      254.535 
   0.000111971      241.825 
   0.000111998      224.522 
   0.000112025      209.089 
   0.000112052      195.279 
   0.000112082      181.586 
   0.000112113      169.394 
   0.000112143      158.496 
   0.000112173      148.718 
   0.000112203      139.913 
   0.000112231      132.463 
   0.000112267      123.834 
   0.000112304      116.133 
    0.00011234       109.23 
   0.000112377      102.939 
   0.000112414      97.1945 
   0.000112451      92.0054 
   0.000112488      87.3037 
   0.000112532      82.2907 
   0.000112558      79.6376 
   0.000112609      74.7987 
   0.000112658      70.5977 
   0.000112708      66.8487 
   0.000112763      63.1369 
   0.000112819      59.8439 
   0.000112887      56.2947 
   0.000112947      53.5346 
   0.000113004      51.2438 
    0.00011306      49.2128 
   0.000113128      47.0936 
   0.000113196      45.2938 
    0.00011327      43.6536 
   0.000113355       42.118 
   0.000113488      40.1627 
   0.000113669      37.7756 
   0.000113778      36.5813 
   0.000113878      35.7462 
   0.000113995      35.0427 
   0.000114103      34.6272 
   0.000114202      34.4588 
    0.00011423      34.4518 
   0.000114338      34.5937 
   0.000114432      34.9305 
   0.000114526      35.4636 
    0.00011462       36.203 
   0.000114714      37.1732 
   0.000114794       38.219 
   0.000114868      39.3839 
   0.000114942       40.786 
   0.000115016      42.4793 
   0.000115065      43.8062 
   0.000115114      45.3257 
   0.000115171      47.3387 
   0.000115218      49.3199 
   0.000115265      51.6316 
   0.000115296      53.3988 
   0.000115328      55.3869 
   0.000115359      57.6415 
    0.00011539      60.2231 
   0.000115415      62.5594 
    0.00011544      65.2064 
   0.000115465      68.2335 
    0.00011549      71.7303 
   0.000115509        74.73 
   0.000115527      78.1198 
   0.000115546      81.9741 
   0.000115565      86.3824 
   0.000115584      91.4522 
   0.000115597      95.4939 
   0.000115611      100.239 
   0.000115625      105.547 
   0.000115639      111.494 
   0.000115652      118.167 
   0.000115666      125.662 
    0.00011568      134.082 
   0.000115694      143.545 
   0.000115705      151.401 
   0.000115715      159.969 
   0.000115725      169.309 
   0.000115736      179.484 
   0.000115746      190.557 
   0.000115757      202.594 
   0.000115767      215.665 
   0.000115778      229.839 
   0.000115788      245.185 
   0.000115799      261.773 
   0.000115809      279.672 
   0.000115818      296.296 
   0.000115829       318.24 
    0.00011584      341.888 
   0.000115851      367.309 
   0.000115862      394.561 
   0.000115874      423.695 
   0.000115885      454.748 
   0.000115896      487.745 
   0.000115908      524.945 
    0.00011592      566.727 
   0.000115933      610.932 
   0.000115952       681.61 
   0.000115968       748.55 
    0.00011599      843.089 
   0.000116018      967.853 
   0.000116081       1255.8 
   0.000116109      1379.84 
    0.00011613      1462.54 
   0.000116152      1542.28 
   0.000116169      1594.02 
   0.000116185      1637.78 
   0.000116202      1672.72 
   0.000116222       1702.1 
   0.000116236      1714.34 
   0.000116252      1718.88 
   0.000116269      1713.23 
   0.000116285      1698.97 
     0.0001163      1676.85 
   0.000116317      1643.25 
   0.000116333      1600.79 
   0.000116354      1535.57 
   0.000116376      1459.39 
   0.000116398      1369.77 
   0.000116428      1238.14 
   0.000116494      933.717 
   0.000116521      818.046 
   0.000116541      733.036 
   0.000116561      655.596 
   0.000116578      594.257 
   0.000116592      547.005 
   0.000116607      502.833 
   0.000116621      461.765 
   0.000116634      425.769 
   0.000116646      394.327 
   0.000116659      365.229 
   0.000116671      338.398 
   0.000116684      313.742 
   0.000116696       291.16 
   0.000116709       270.54 
   0.000116721      251.766 
   0.000116734      234.843 
   0.000116746      219.615 
   0.000116759      205.834 
   0.000116771      193.389 
   0.000116783      182.172 
   0.000116796      172.077 
   0.000116808      163.006 
    0.00011682      154.866 
   0.000116832      147.853 
   0.000116843      141.799 
    0.00011686      133.797 
   0.000116877      126.929 
   0.000116894      121.036 
   0.000116911      115.978 
    0.00011693      111.164 
    0.00011695      106.902 
    0.00011697      103.328 
    0.00011699      100.325 
    0.00011701      97.7989 
   0.000117037      95.0387 
   0.000117063      92.8422 
    0.00011709      91.0991 
    0.00011713       89.157 
   0.000117173        87.77 
   0.000117216      86.9493 
   0.000117264       86.566 
    0.00011728      86.5425 
   0.000117343      86.8935 
   0.000117406      87.8596 
    0.00011747      89.3509 
   0.000117548      91.8454 
   0.000117627      94.9979 
   0.000117706      98.7799 
   0.000117784      103.188 
   0.000117851      107.457 
   0.000117919      112.212 
   0.000117986      117.482 
   0.000118053      123.301 
    0.00011812       129.71 
   0.000118184      136.479 
   0.000118248      143.739 
   0.000118311      151.672 
   0.000118374       160.34 
   0.000118437      169.812 
     0.0001185      180.069 
   0.000118562       191.06 
   0.000118623      203.047 
   0.000118685      216.119 
   0.000118746      230.368 
   0.000118808      245.891 
   0.000118873      263.756 
   0.000118938      283.253 
   0.000119003      304.478 
   0.000119068      327.502 
   0.000119133      352.357 
   0.000119201      380.335 
    0.00011927      410.882 
   0.000119363      454.202 
   0.000119572      556.567 
   0.000119666      599.816 
   0.000119737      628.781 
   0.000119807      653.356 
   0.000119854      666.702 
   0.000119901       677.25 
   0.000119961      686.273 
   0.000120006      689.482 
    0.00012003      689.904 
   0.000120084      687.634 
   0.000120134      681.427 
   0.000120186      671.166 
   0.000120242      655.688 
    0.00012031      632.309 
   0.000120387      600.065 
   0.000120465      563.935 
   0.000120705      445.027 
   0.000120767      416.006 
    0.00012085        378.9 
   0.000120912      352.893 
   0.000120974      328.553 
   0.000121037      305.911 
   0.000121099      284.949 
   0.000121158      266.609 
   0.000121217      249.666 
   0.000121284      232.056 
   0.000121339      218.733 
   0.000121414      202.052 
   0.000121491      186.751 
   0.000121567      173.047 
   0.000121644      160.394 
   0.000121721      148.903 
   0.000121803      137.881 
   0.000121885      127.873 
   0.000121958      119.939 
    0.00012203      112.711 
   0.000122102       106.11 
   0.000122175      100.064 
   0.000122247      94.5131 
   0.000122346      87.6631 
    0.00012242      82.9671 
   0.000122495      78.6352 
   0.000122569      74.6318 
    0.00012268      69.1747 
   0.000122792      64.2956 
   0.000122901      59.9997 
   0.000123007      56.2733 
   0.000123112      52.8907 
   0.000123217      49.8116 
   0.000123322       47.001 
   0.000123427      44.4289 
   0.000123572      41.2112 
   0.000123718      38.3443 
   0.000123863      35.7802 
   0.000124009      33.4787 
   0.000124154      31.4057 
   0.000124324      29.2426 
   0.000124505      27.1836 
   0.000124687       25.352 
   0.000124868      23.7161 
   0.000125049      22.2498 
   0.000125244      20.8402 
   0.000125465       19.417 
   0.000125685       18.156 
   0.000125906      17.0325 
   0.000126127       16.027 
   0.000126348       15.125 
   0.000126594       14.228 
   0.000126839      13.4278 
   0.000127085      12.7117 
    0.00012733      12.0685 
   0.000127576       11.489 
   0.000127794      11.0224 
   0.000128066      10.4955 
   0.000128339      10.0234 
   0.000128611      9.59959 
    0.00012899      9.07986 
   0.000129355      8.64717 
    0.00012972      8.27114 
   0.000130167      7.87642 
   0.000130615      7.54548 
   0.000130914      7.35599 
    0.00013134      7.12442 
   0.000131767      6.93527 
   0.000132065      6.83509 
   0.000132176      6.82067 
   0.000132288      6.84647 
   0.000132363      6.89946 
   0.000132452      7.00344 
   0.000132591      7.18456 
   0.000132658      7.23092 
   0.000132683        7.235 
   0.000132751      7.20607 
   0.000132818      7.12455 
    0.00013302      6.77148 
     0.0001331      6.66936 
   0.000133179      6.60208 
   0.000133232      6.57255 
    0.00013341      6.52164 
   0.000133845      6.47684 
   0.000134225       6.4662 
   0.000134688      6.48283 
   0.000135125      6.52756 
   0.000135629      6.61478 
   0.000136207      6.76381 
   0.000136711      6.93871 
   0.000137177      7.14142 
   0.000137643      7.38749 
   0.000138095      7.67235 
   0.000138547      8.00917 
   0.000138848      8.26652 
   0.000139201      8.60597 
   0.000139555      8.99187 
   0.000139908      9.43234 
   0.000140261       9.9388 
   0.000140534      10.3869 
   0.000140807      10.8986 
   0.000141012      11.3394 
   0.000141217       11.857 
   0.000141354      12.2812 
   0.000141448      12.6462 
    0.00014151      12.9469 
   0.000141573      13.3208 
   0.000141618       13.659 
   0.000141659      14.0455 
   0.000141687      14.3606 
   0.000141714      14.7379 
   0.000141742      15.1987 
   0.000141762      15.6015 
   0.000141784      16.1182 
   0.000141806      16.7339 
   0.000141828      17.4694 
   0.000141845      18.1138 
   0.000141861      18.8498 
   0.000141878      19.6893 
   0.000141892      20.5329 
   0.000141905      21.3635 
   0.000141919      22.3238 
   0.000141936      23.6263 
   0.000141951      24.9877 
   0.000141967      26.6143 
   0.000141982      28.2359 
   0.000141998       30.153 
   0.000142015      32.3349 
   0.000142031      34.7247 
   0.000142048      37.3255 
   0.000142061      39.5762 
   0.000142076      42.3025 
   0.000142098      46.5657 
    0.00014212       51.153 
   0.000142149      57.4902 
   0.000142197      68.8587 
   0.000142239      78.5542 
   0.000142261      83.5896 
   0.000142285      88.4221 
   0.000142308      92.7129 
   0.000142332      96.3283 
   0.000142349      98.5257 
   0.000142367      100.236 
   0.000142385      101.428 
   0.000142405      102.134 
   0.000142413      102.203 
   0.000142431      101.949 
    0.00014245      101.073 
   0.000142468      99.7032 
   0.000142489      97.3249 
    0.00014251      94.4357 
   0.000142532      90.6839 
   0.000142556      86.1617 
   0.000142579      81.1905 
   0.000142619       72.223 
   0.000142669      60.7256 
   0.000142698      54.2632 
    0.00014272      49.7092 
   0.000142742      45.4663 
   0.000142764      41.5712 
   0.000142783      38.4805 
   0.000142803      35.6758 
   0.000142822       33.156 
   0.000142841      30.9138 
    0.00014286      28.9377 
   0.000142879       27.212 
   0.000142899      25.7187 
   0.000142918      24.4381 
   0.000142937      23.3498 
   0.000142956      22.4331 
   0.000142976      21.6596 
   0.000142995      21.0077 
   0.000143015      20.4783 
   0.000143038      20.0019 
   0.000143062      19.6182 
   0.000143086       19.336 
   0.000143118      19.0829 
    0.00014315      18.9357 
   0.000143198      18.8521 
   0.000143214      18.8506 
   0.000143278      18.9311 
   0.000143374      19.2093 
    0.00014347      19.5899 
   0.000143626      20.3376 
   0.000143809       21.374 
   0.000143992      22.5622 
   0.000144175      23.9048 
   0.000144356      25.4004 
   0.000144536      27.0636 
   0.000144716      28.9334 
    0.00014485      30.4908 
   0.000144985      32.1994 
    0.00014512      34.0793 
   0.000145255      36.1541 
   0.000145389      38.4521 
   0.000145524      41.0074 
   0.000145659      43.8603 
    0.00014578      46.7352 
   0.000145896      49.7577 
   0.000146011      53.1181 
   0.000146126      56.8714 
   0.000146241      61.0845 
   0.000146318       64.189 
   0.000146398      67.7008 
   0.000146478      71.5422 
   0.000146558      75.7575 
   0.000146638      80.3994 
   0.000146717        85.53 
   0.000146797      91.2241 
   0.000146877      97.5714 
   0.000146937      102.826 
   0.000146996      108.427 
   0.000147053      114.476 
   0.000147111      121.102 
   0.000147169      128.383 
   0.000147227      136.413 
   0.000147284      145.199 
    0.00014734      154.722 
   0.000147396       165.31 
   0.000147452       177.13 
   0.000147508      190.385 
   0.000147545      200.134 
   0.000147582      210.508 
   0.000147618      221.549 
   0.000147653      233.532 
   0.000147689      246.562 
   0.000147725      260.752 
   0.000147761      276.228 
   0.000147797      293.128 
   0.000147833      311.601 
   0.000147871      332.979 
   0.000147911      357.776 
   0.000147951      385.148 
   0.000147991      415.316 
   0.000148031      448.477 
   0.000148071      484.783 
   0.000148111      524.326 
    0.00014815      567.103 
    0.00014819       612.99 
    0.00014823      661.714 
    0.00014829      739.086 
   0.000148408      896.866 
    0.00014846      962.977 
   0.000148512      1022.91 
   0.000148553      1064.19 
   0.000148599      1101.76 
    0.00014863      1121.14 
    0.00014866      1135.59 
   0.000148698      1146.37 
   0.000148728      1149.26 
   0.000148766      1145.97 
   0.000148809      1133.25 
   0.000148833      1122.44 
   0.000148881      1093.88 
   0.000148929      1057.91 
   0.000148977      1016.91 
   0.000149096      907.685 
   0.000149156      857.348 
   0.000149213      813.903 
   0.000149252      788.721 
    0.00014929      766.794 
   0.000149336      744.891 
   0.000149382      727.557 
   0.000149428       714.47 
   0.000149474      705.181 
   0.000149526      698.644 
   0.000149602      694.605 
   0.000149628      694.367 
   0.000149817       697.45 
   0.000149904      695.166 
   0.000149978      688.362 
   0.000150022      681.804 
   0.000150083      669.555 
   0.000150143      653.508 
   0.000150204      633.673 
   0.000150264      610.601 
   0.000150356      571.188 
   0.000150477      513.182 
   0.000150629      439.122 
   0.000150708      402.329 
   0.000150787      367.694 
   0.000150867      335.616 
   0.000150926      313.352 
   0.000150985      292.642 
   0.000151045      273.459 
   0.000151104      255.747 
   0.000151163      239.429 
   0.000151222      224.419 
   0.000151282      210.624 
   0.000151341      197.953 
     0.0001514      186.313 
    0.00015146      175.617 
   0.000151519      165.784 
   0.000151578      156.737 
   0.000151658      145.777 
   0.000151737       135.94 
   0.000151816      127.094 
   0.000151895      119.122 
   0.000151966       112.61 
   0.000152037      106.659 
   0.000152108       101.21 
    0.00015218      96.2141 
   0.000152251      91.6256 
   0.000152358      85.4228 
   0.000152464      79.9363 
   0.000152544      76.2771 
   0.000152662      71.3547 
   0.000152781      67.0278 
     0.0001529      63.2173 
   0.000153018      59.8572 
   0.000153133      56.9858 
    0.00015324      54.6084 
   0.000153346      52.4874 
   0.000153453      50.5988 
   0.000153596      48.4075 
   0.000153746      46.4603 
   0.000153904      44.7765 
   0.000154062      43.4359 
   0.000154221      42.4149 
   0.000154347      41.8174 
    0.00015449      41.3722 
   0.000154632      41.1657 
   0.000154679      41.1503 
   0.000154808      41.2453 
   0.000154936      41.5462 
   0.000155065       42.064 
   0.000155194      42.8146 
   0.000155305      43.6677 
   0.000155416      44.7275 
    0.00015554      46.1731 
   0.000155639      47.5558 
   0.000155741      49.2289 
   0.000155847      51.2506 
   0.000155956      53.6641 
    0.00015604       55.784 
   0.000156123      58.1686 
   0.000156221      61.3558 
   0.000156295      64.0557 
   0.000156384      67.7399 
   0.000156448      70.7286 
   0.000156513      74.0182 
   0.000156578      77.6445 
   0.000156637      81.2955 
   0.000156696      85.2999 
   0.000156756      89.6993 
   0.000156815      94.5416 
   0.000156882      100.609 
   0.000156949      107.402 
   0.000156993      112.387 
   0.000157051      119.407 
   0.000157108      127.189 
   0.000157165      135.836 
   0.000157223      145.464 
   0.000157269      154.093 
   0.000157316      163.538 
   0.000157362      173.885 
   0.000157409      185.232 
   0.000157456      197.683 
   0.000157494       208.79 
   0.000157539      223.116 
   0.000157586      239.553 
   0.000157625      254.074 
   0.000157666      270.866 
   0.000157711      290.511 
   0.000157764      315.906 
   0.000157819      344.855 
   0.000157873      375.998 
   0.000157936      414.732 
   0.000158011      464.197 
    0.00015818       581.23 
   0.000158247      624.385 
   0.000158305      657.328 
   0.000158354      680.702 
   0.000158403      699.149 
    0.00015844      709.299 
   0.000158476      716.021 
   0.000158513      719.136 
   0.000158526      719.385 
   0.000158572      716.524 
   0.000158615      708.783 
   0.000158657      696.395 
     0.0001587      679.747 
   0.000158743      659.338 
   0.000158793      631.054 
   0.000158844       599.37 
   0.000158912       553.71 
   0.000159065      447.182 
   0.000159116      412.999 
   0.000159168      380.603 
    0.00015922      350.281 
   0.000159275      320.325 
   0.000159317      299.563 
   0.000159358      280.245 
   0.000159399      262.326 
   0.000159441      245.747 
   0.000159492      227.195 
   0.000159542      210.387 
   0.000159593      195.173 
   0.000159644      181.404 
   0.000159686      170.931 
   0.000159728      161.285 
   0.000159756      155.277 
   0.000159813       144.19 
   0.000159869      134.218 
   0.000159928       124.85 
   0.000159987      116.428 
   0.000160045       108.84 
   0.000160104       101.99 
   0.000160163      95.7974 
   0.000160211      91.1687 
   0.000160268      86.1485 
   0.000160325      81.5926 
   0.000160383      77.4581 
   0.000160436      73.9402 
    0.00016051      69.5167 
   0.000160597      64.9375 
   0.000160692      60.3671 
   0.000160814       55.055 
   0.000160908      51.2628 
   0.000160985      48.3762 
   0.000161068      45.5485 
   0.000161141      43.2696 
   0.000161215      41.2099 
   0.000161289      39.3452 
   0.000161399      36.8518 
    0.00016151      34.6506 
    0.00016162      32.6846 
   0.000161709      31.2521 
   0.000161812      29.7199 
   0.000161916       28.323 
   0.000162019       27.046 
   0.000162175      25.3268 
    0.00016233      23.8106 
   0.000162485      22.4668 
   0.000162667      21.0768 
    0.00016285      19.8585 
   0.000163032      18.7863 
   0.000163214       17.839 
   0.000163396      16.9993 
   0.000163581      16.2449 
   0.000163766        15.57 
   0.000163952      14.9687 
   0.000164199      14.2669 
   0.000164446      13.6639 
   0.000164665      13.2032 
   0.000164883      12.8015 
   0.000165174      12.3465 
   0.000165465      11.9745 
   0.000165674      11.7605 
   0.000165803      11.6684 
   0.000165899      11.6412 
   0.000165996      11.6745 
   0.000166092       11.785 
   0.000166302       12.163 
   0.000166379      12.2316 
   0.000166397      12.2344 
   0.000166472      12.1855 
    0.00016655      12.0415 
   0.000166765      11.4534 
   0.000166848      11.2799 
   0.000166932       11.164 
   0.000167015      11.0958 
   0.000167183      11.0436 
   0.000167286      11.0389 
   0.000167597      11.0795 
   0.000167908      11.1835 
   0.000168272      11.3862 
    0.00016863      11.6762 
   0.000168918      11.9845 
   0.000169207       12.371 
   0.000169428      12.7251 
   0.000169676      13.1955 
   0.000169921      13.7492 
   0.000170103      14.2274 
   0.000170284      14.7749 
    0.00017044       15.311 
   0.000170596      15.9189 
   0.000170752      16.6125 
   0.000170908      17.4096 
   0.000171029      18.1128 
    0.00017115      18.9061 
   0.000171271      19.8072 
   0.000171392      20.8388 
   0.000171513      22.0304 
   0.000171624      23.3093 
   0.000171696      24.2355 
   0.000171767      25.2618 
   0.000171839      26.4049 
    0.00017191      27.6854 
   0.000171982      29.1286 
   0.000172054      30.7667 
   0.000172107      32.1473 
   0.000172156      33.5412 
   0.000172218      35.5269 
   0.000172265      37.2027 
   0.000172312      39.0674 
   0.000172358      41.1539 
   0.000172405      43.4836 
   0.000172451      46.1109 
   0.000172497      49.1071 
   0.000172528      51.3489 
   0.000172558      53.8206 
   0.000172589      56.5587 
    0.00017262      59.6074 
   0.000172649      62.8405 
   0.000172678      66.4595 
   0.000172707      70.5331 
   0.000172729      73.9367 
   0.000172751      77.6851 
   0.000172773       81.827 
   0.000172795      86.4187 
   0.000172817       91.525 
   0.000172839      97.2202 
   0.000172861      103.613 
   0.000172883      110.835 
   0.000172905      118.956 
   0.000172927      128.101 
   0.000172942      134.836 
   0.000172957      142.131 
   0.000172971      150.036 
    0.00017299      160.849 
   0.000173008      172.792 
   0.000173027      185.973 
   0.000173045      200.501 
   0.000173064      216.488 
   0.000173082      234.044 
     0.0001731       253.28 
   0.000173119        274.3 
   0.000173137        297.2 
   0.000173156      322.064 
   0.000173174      348.961 
   0.000173193      377.941 
   0.000173211      409.032 
   0.000173229      442.233 
   0.000173254      489.721 
   0.000173277      538.096 
     0.0001733      586.625 
   0.000173333      663.644 
   0.000173379      778.025 
   0.000173441       930.45 
   0.000173478      1016.92 
   0.000173502      1070.14 
   0.000173527      1118.47 
   0.000173552      1160.84 
   0.000173574      1193.05 
   0.000173596      1218.99 
   0.000173621      1240.39 
   0.000173643      1251.02 
   0.000173665      1254.73 
   0.000173685      1251.56 
   0.000173712      1237.71 
   0.000173731      1221.81 
   0.000173758      1190.36 
   0.000173784      1150.65 
    0.00017381      1103.23 
    0.00017384      1041.95 
   0.000173873      968.638 
   0.000173917      861.757 
   0.000173983      698.701 
   0.000174016      620.427 
   0.000174045      555.681 
   0.000174072      498.324 
   0.000174093      458.153 
   0.000174114      420.554 
   0.000174134      385.585 
   0.000174157      351.016 
   0.000174173      326.849 
    0.00017419      304.356 
   0.000174207      283.485 
   0.000174225      262.535 
   0.000174245      241.854 
    0.00017426      227.619 
   0.000174274      214.416 
   0.000174289      202.188 
   0.000174304      190.876 
   0.000174324      177.122 
   0.000174343      164.763 
   0.000174363      153.672 
   0.000174379      145.801 
   0.000174395      138.009 
   0.000174412      130.906 
   0.000174429      124.428 
   0.000174451      116.666 
   0.000174473       109.79 
   0.000174495       103.69 
   0.000174518      98.2662 
    0.00017454      93.4336 
   0.000174567      88.1463 
   0.000174592      83.9838 
   0.000174617      80.2846 
   0.000174642      76.9852 
   0.000174666      74.0322 
   0.000174699      70.5562 
   0.000174732      67.5273 
   0.000174765      64.8745 
   0.000174798      62.5406 
   0.000174835      60.2321 
   0.000174877      58.0044 
   0.000174918      56.0822 
    0.00017496      54.4188 
   0.000175022      52.3293 
   0.000175084      50.6422 
   0.000175146      49.2846 
   0.000175225      47.9463 
   0.000175304      46.9674 
   0.000175383      46.2846 
   0.000175463      45.8505 
   0.000175568      45.5981 
   0.000175601      45.5866 
   0.000175701      45.7242 
     0.0001758      46.0954 
     0.0001759      46.6759 
   0.000176032       47.746 
   0.000176145      48.9076 
   0.000176285       50.653 
   0.000176426      52.7293 
   0.000176566      55.1391 
   0.000176706      57.8928 
   0.000176846       61.007 
   0.000176986      64.4833 
   0.000177125      68.3658 
   0.000177264      72.6866 
   0.000177404      77.4818 
   0.000177543      82.7906 
   0.000177688      88.9078 
   0.000177836       95.813 
   0.000177984      103.438 
   0.000178132      111.822 
   0.000178281       120.99 
   0.000178446      132.155 
   0.000178579      141.834 
   0.000178779      157.364 
   0.000179214      192.931 
   0.000179381      205.346 
   0.000179519      214.328 
   0.000179622      220.053 
   0.000179727      224.883 
   0.000179831      228.568 
   0.000179935      230.963 
   0.000180022      231.876 
   0.000180056      231.955 
   0.000180163      231.141 
   0.000180275      228.571 
   0.000180392      224.129 
   0.000180503      218.455 
   0.000180647      209.469 
   0.000180821      196.755 
   0.000181053      178.056 
   0.000181344      154.206 
   0.000181543      138.651 
    0.00018171       126.56 
   0.000181835      118.112 
    0.00018196      110.221 
   0.000182085      102.885 
   0.000182204      96.3919 
    0.00018232      90.5113 
   0.000182436      85.0582 
   0.000182553      80.0077 
   0.000182669       75.334 
     0.0001828      70.4983 
   0.000182959      65.1439 
   0.000183119      60.3322 
   0.000183278      56.0037 
   0.000183438      52.1054 
   0.000183597      48.5906 
    0.00018376      45.3688 
   0.000183922      42.4643 
   0.000184084      39.8453 
   0.000184246       37.487 
   0.000184408      35.3816 
   0.000184528      34.0066 
   0.000184658      32.6909 
   0.000184845      31.1026 
   0.000185105      28.9617 
    0.00018532      27.1183 
   0.000185432      26.2764 
   0.000185545      25.5693 
   0.000185658      24.9911 
   0.000185771       24.528 
    0.00018592       24.084 
    0.00018602      23.9055 
    0.00018612      23.8373 
   0.000186224      23.9086 
   0.000186306      24.0896 
   0.000186387      24.4084 
   0.000186469      24.9024 
   0.000186523       25.355 
   0.000186577      25.9324 
   0.000186624      26.5521 
   0.000186663      27.1792 
   0.000186702      27.9286 
   0.000186741      28.8305 
    0.00018678      29.9262 
    0.00018681      30.9091 
   0.000186839      32.0655 
   0.000186868      33.4375 
   0.000186898      35.0792 
   0.000186924      36.8121 
   0.000186943      38.2995 
   0.000186962      39.9944 
   0.000186981      41.9309 
      0.000187      44.1487 
   0.000187019      46.6933 
   0.000187039      49.6167 
   0.000187051       51.805 
   0.000187064       54.207 
   0.000187077      56.8437 
    0.00018709      59.7375 
   0.000187102      62.9123 
   0.000187115      66.3938 
   0.000187128      70.3063 
   0.000187142      74.7068 
   0.000187155      79.5415 
   0.000187169      84.8469 
   0.000187182      90.6606 
   0.000187195      97.0221 
   0.000187209      103.971 
   0.000187222      111.548 
   0.000187236      120.138 
   0.000187251      129.871 
   0.000187265      140.484 
   0.000187279      152.025 
   0.000187294      164.539 
   0.000187308      178.069 
   0.000187323      192.652 
   0.000187337      208.318 
    0.00018735      223.366 
   0.000187368      244.846 
   0.000187385      267.955 
   0.000187402      292.682 
    0.00018742      318.993 
   0.000187437      346.825 
   0.000187458      381.348 
   0.000187485      430.091 
   0.000187515      486.621 
   0.000187596      645.043 
   0.000187631       709.74 
    0.00018766      760.227 
   0.000187681      793.228 
   0.000187705      824.671 
   0.000187727      849.837 
   0.000187749      869.881 
   0.000187772      884.977 
   0.000187795       893.56 
   0.000187813      895.591 
   0.000187833      892.993 
   0.000187856      884.049 
   0.000187875      871.647 
   0.000187898      850.983 
   0.000187921      824.613 
   0.000187944      793.148 
   0.000187965      761.059 
   0.000187993      713.729 
   0.000188028      649.263 
    0.00018812      468.333 
   0.000188152      408.414 
   0.000188173      372.011 
   0.000188198      331.025 
   0.000188219      297.306 
   0.000188236      273.616 
   0.000188252      251.338 
   0.000188268      230.485 
   0.000188281      215.251 
   0.000188295      198.886 
    0.00018831      183.616 
   0.000188324      169.414 
   0.000188339      156.246 
   0.000188353      144.074 
   0.000188368      132.853 
   0.000188382      122.537 
   0.000188396       113.53 
   0.000188409       105.67 
   0.000188422      98.4283 
   0.000188435      91.7662 
   0.000188448      85.6471 
   0.000188461      80.0347 
   0.000188474      74.8936 
   0.000188487      70.1894 
   0.000188498      66.4756 
   0.000188512      62.2143 
   0.000188526      58.3507 
    0.00018854      54.8494 
   0.000188554      51.6776 
   0.000188568      48.8043 
   0.000188582      46.2011 
   0.000188596      43.8417 
    0.00018861      41.7018 
   0.000188624      39.7594 
   0.000188643      37.4421 
   0.000188661      35.4289 
   0.000188679       33.644 
   0.000188698      32.0566 
   0.000188716      30.6396 
   0.000188741       28.976 
   0.000188765      27.5286 
    0.00018879      26.2597 
   0.000188814      25.1389 
   0.000188839      24.1415 
   0.000188874      22.8781 
   0.000188909      21.7851 
   0.000188945      20.8279 
    0.00018898      19.9808 
   0.000189027      18.9896 
   0.000189074      18.1258 
   0.000189122      17.3648 
   0.000189169       16.688 
   0.000189216      16.0816 
   0.000189276      15.3944 
   0.000189336      14.7859 
   0.000189426      13.9922 
   0.000189516      13.3122 
   0.000189606      12.7216 
   0.000189696      12.2028 
   0.000189807       11.642 
   0.000189919      11.1513 
    0.00019003      10.7169 
   0.000190196      10.1488 
   0.000190363      9.65945 
    0.00019053      9.23135 
   0.000190693      8.85907 
   0.000190909      8.42854 
   0.000191071      8.15568 
   0.000191179      8.01331 
    0.00019126      7.94065 
   0.000191354      7.90582 
   0.000191368      7.90566 
   0.000191477      7.94318 
   0.000191636      8.03651 
   0.000191669      8.04102 
   0.000191735      8.01605 
   0.000191803      7.93239 
    0.00019187      7.79637 
   0.000191936      7.61688 
   0.000192128      7.02543 
   0.000192211      6.80942 
   0.000192295      6.63624 
   0.000192378      6.50027 
   0.000192489      6.35863 
   0.000192656      6.18921 
    0.00019299      5.90255 
   0.000193324       5.6488 
   0.000193657      5.42082 
    0.00019412      5.14002 
   0.000194601      4.88547 
   0.000195081      4.66306 
   0.000195562      4.46867 
   0.000196031      4.30226 
   0.000196491      4.16017 
    0.00019695      4.03657 
    0.00019741      3.93052 
   0.000197879      3.83943 
   0.000198358        3.764 
   0.000198836      3.70649 
   0.000199315      3.66674 
   0.000199758      3.64719 
   0.000199962      3.64449 
   0.000200407      3.65369 
   0.000200852      3.68611 
   0.000201186      3.72886 
    0.00020152      3.79184 
   0.000201742      3.84758 
   0.000202058      3.95044 
   0.000202295       4.0506 
   0.000202532       4.1766 
    0.00020269      4.27904 
   0.000202848      4.40018 
   0.000203006      4.54463 
    0.00020313       4.6787 
   0.000203255      4.83519 
   0.000203379      5.01959 
   0.000203503      5.23938 
   0.000203586      5.41053 
   0.000203669      5.60602 
   0.000203761      5.85704 
   0.000203852      6.15375 
   0.000203913      6.38319 
   0.000203975      6.64374 
   0.000204036      6.94196 
   0.000204097      7.28654 
   0.000204143       7.5823 
   0.000204193      7.94894 
   0.000204244      8.39224 
   0.000204279      8.73155 
   0.000204314      9.11445 
   0.000204348      9.55102 
   0.000204383      10.0548 
   0.000204409      10.4876 
   0.000204435      10.9785 
   0.000204456      11.4236 
   0.000204476      11.9227 
   0.000204497      12.4857 
   0.000204518      13.1247 
   0.000204539       13.854 
    0.00020456      14.6908 
   0.000204574      15.3184 
   0.000204588      16.0098 
   0.000204601      16.7727 
   0.000204615      17.6158 
   0.000204629      18.5487 
   0.000204643      19.5821 
   0.000204657      20.7276 
   0.000204673      22.1628 
   0.000204684      23.3545 
   0.000204696      24.6552 
   0.000204708      26.0746 
   0.000204719      27.6232 
   0.000204731      29.3122 
   0.000204743      31.1534 
   0.000204754      33.1593 
   0.000204766      35.3429 
   0.000204778      37.7181 
   0.000204789       40.254 
   0.000204801      42.9786 
   0.000204812       45.927 
   0.000204824       49.114 
   0.000204835      52.5544 
   0.000204846      56.2637 
   0.000204858      60.2571 
   0.000204869      64.5502 
   0.000204881      69.1583 
   0.000204892      74.0967 
   0.000204903      79.3802 
   0.000204915       84.944 
   0.000204926      90.8708 
   0.000204937      97.1732 
   0.000204954      107.356 
   0.000204971      118.443 
   0.000204988      130.463 
   0.000205004      143.279 
   0.000205021      156.951 
   0.000205037      171.548 
   0.000205054      187.055 
   0.000205076      209.099 
     0.0002051      235.036 
   0.000205129      267.049 
   0.000205157      300.738 
   0.000205247      412.535 
   0.000205274       443.97 
     0.0002053      473.431 
   0.000205327      500.168 
   0.000205353      523.465 
    0.00020538      542.674 
   0.000205406      557.242 
   0.000205424      564.158 
   0.000205442      568.727 
   0.000205466      571.069 
   0.000205481      570.158 
   0.000205504      565.382 
   0.000205522      558.985 
   0.000205549      545.157 
   0.000205575      526.625 
   0.000205596      508.769 
   0.000205621      484.997 
   0.000205648      456.628 
   0.000205683      415.392 
   0.000205782      293.309 
   0.000205811      258.788 
   0.000205839      227.998 
   0.000205861       204.87 
   0.000205883      183.232 
     0.0002059      168.039 
   0.000205916      153.758 
   0.000205933      140.401 
   0.000205949      127.967 
   0.000205966      116.444 
   0.000205977      109.259 
    0.00020599       101.05 
   0.000206004      93.3985 
   0.000206017      86.2851 
   0.000206031      79.6891 
   0.000206044      73.5879 
   0.000206057       67.958 
   0.000206071      62.7749 
   0.000206084      58.0135 
   0.000206096      54.1824 
   0.000206108      50.6368 
   0.000206119      47.3603 
   0.000206131      44.3367 
   0.000206143      41.5499 
   0.000206155      38.9846 
   0.000206166      36.6259 
   0.000206178      34.4593 
    0.00020619       32.471 
   0.000206202       30.648 
   0.000206216      28.6632 
   0.000206228      27.0691 
   0.000206241      25.6185 
   0.000206253      24.2992 
   0.000206265      23.0995 
   0.000206278      22.0088 
    0.00020629       21.017 
   0.000206303      20.1151 
   0.000206322      18.9125 
    0.00020634      17.8678 
   0.000206359      16.9587 
   0.000206378      16.1659 
   0.000206396      15.4728 
   0.000206416       14.836 
   0.000206438       14.229 
   0.000206459      13.7029 
   0.000206481      13.2445 
    0.00020651      12.7207 
   0.000206538      12.2784 
   0.000206567      11.9019 
   0.000206596      11.5792 
   0.000206639      11.1764 
   0.000206686      10.8244 
   0.000206733      10.5449 
   0.000206781      10.3238 
   0.000206828      10.1511 
   0.000206898      9.96759 
   0.000206969      9.85985 
   0.000207037      9.81717 
   0.000207057      9.81476 
   0.000207139      9.85004 
   0.000207221      9.95275 
   0.000207303      10.1195 
   0.000207373      10.3126 
    0.00020746      10.6204 
   0.000207548      11.0068 
   0.000207635      11.4803 
   0.000207694      11.8508 
   0.000207752      12.2717 
    0.00020781      12.7507 
   0.000207878       13.391 
   0.000207923      13.8788 
   0.000207968      14.4239 
   0.000208013      15.0348 
   0.000208058      15.7207 
   0.000208103      16.4915 
   0.000208148      17.3566 
   0.000208197      18.4307 
   0.000208238      19.4128 
   0.000208279      20.4923 
    0.00020832      21.6937 
   0.000208361      23.0075 
   0.000208406      24.5522 
   0.000208445      26.0316 
   0.000208489      27.8751 
   0.000208522      29.3931 
   0.000208555      31.0505 
   0.000208588      32.8645 
   0.000208618      34.7135 
    0.00020865       36.914 
   0.000208675      38.8483 
   0.000208705      41.3961 
   0.000208732      44.0262 
   0.000208754      46.3899 
   0.000208776      49.0636 
   0.000208798      52.0542 
    0.00020882      55.4107 
   0.000208842      59.1885 
   0.000208858      62.3358 
   0.000208875      65.7845 
   0.000208892      69.7654 
   0.000208911      74.5958 
    0.00020893      79.9725 
    0.00020895      86.1616 
    0.00020897      93.1864 
   0.000208983      98.3233 
   0.000208997      104.226 
   0.000209012      111.012 
   0.000209027      118.374 
   0.000209042      126.353 
    0.00020906      136.509 
   0.000209075      145.987 
    0.00020909      156.215 
   0.000209105      167.232 
    0.00020912      179.078 
    0.00020913      187.454 
   0.000209149      204.531 
   0.000209168      223.109 
   0.000209187       243.24 
   0.000209207      264.964 
   0.000209228      290.995 
   0.000209249      319.021 
    0.00020927      349.011 
   0.000209292      380.892 
    0.00020932      426.725 
   0.000209349       475.38 
   0.000209382      533.976 
   0.000209477      707.476 
   0.000209508      763.036 
   0.000209542      816.493 
   0.000209573      861.319 
   0.000209593      886.645 
   0.000209617      911.551 
    0.00020964      931.557 
   0.000209661      944.984 
   0.000209682      953.953 
   0.000209704      958.376 
   0.000209712       958.76 
   0.000209728      957.376 
   0.000209754      949.449 
   0.000209768      942.352 
   0.000209795       922.45 
   0.000209817      902.254 
   0.000209838      878.161 
    0.00020987      835.564 
   0.000209902      786.531 
   0.000209934      732.659 
    0.00020998      648.327 
   0.000210054      513.945 
   0.000210082      463.611 
   0.000210112      413.956 
   0.000210133        380.4 
   0.000210155      348.621 
   0.000210176       318.73 
   0.000210195      292.995 
   0.000210213          271 
    0.00021023      251.119 
   0.000210247      233.195 
   0.000210264      216.342 
    0.00021028      200.551 
   0.000210297       185.76 
   0.000210314      171.955 
   0.000210331      159.219 
   0.000210348      147.497 
   0.000210363      138.167 
   0.000210381      127.371 
   0.000210396      119.398 
   0.000210411      112.029 
   0.000210426      105.223 
   0.000210441      98.9435 
   0.000210456       93.153 
    0.00021047      87.8161 
   0.000210485       82.899 
     0.0002105      78.3691 
    0.00021052      72.8793 
   0.000210537      68.4852 
   0.000210553      64.8385 
    0.00021057      61.3916 
   0.000210586      58.2374 
   0.000210609       54.439 
   0.000210631      51.0519 
   0.000210653      48.0235 
   0.000210675      45.3082 
   0.000210697      42.8587 
   0.000210719      40.6425 
   0.000210744      38.4075 
   0.000210771      36.1969 
   0.000210799      34.2254 
   0.000210826      32.4587 
   0.000210852       30.975 
   0.000210887      29.1348 
   0.000210923      27.5085 
   0.000210958      26.0627 
   0.000210994      24.7706 
   0.000211029      23.6105 
   0.000211064      22.5661 
     0.0002111      21.6208 
   0.000211147      20.4939 
   0.000211194      19.4977 
   0.000211241      18.6131 
   0.000211289      17.8242 
   0.000211336      17.1181 
   0.000211407      16.1915 
   0.000211472      15.4539 
   0.000211538      14.8129 
   0.000211603      14.2541 
   0.000211669      13.7661 
   0.000211756      13.2094 
   0.000211852      12.7023 
   0.000211948      12.2871 
   0.000212044      11.9497 
    0.00021214      11.6797 
   0.000212236      11.4699 
   0.000212362      11.2796 
   0.000212457      11.2012 
   0.000212551      11.1783 
    0.00021267      11.2241 
    0.00021292      11.4698 
   0.000213307      11.7958 
   0.000213449      12.0026 
   0.000213591      12.3114 
   0.000213729      12.7009 
   0.000213859       13.138 
   0.000213989        13.64 
   0.000214148      14.3455 
   0.000214315      15.2024 
   0.000214466      16.1054 
   0.000214611       17.092 
   0.000214758      18.2332 
   0.000214865      19.1647 
   0.000214981      20.2836 
    0.00021509      21.4671 
   0.000215194      22.7115 
   0.000215304      24.1733 
   0.000215391      25.4493 
   0.000215478      26.8471 
   0.000215562      28.3359 
   0.000215646      29.9699 
   0.000215732      31.8046 
   0.000215821      33.9147 
    0.00021591      36.2637 
   0.000215998      38.8365 
   0.000216084      41.6862 
   0.000216171      44.8828 
   0.000216229      47.2341 
   0.000216287      49.7839 
   0.000216344      52.5544 
   0.000216402      55.5707 
    0.00021646      58.8614 
   0.000216518      62.4591 
   0.000216576      66.4011 
   0.000216633      70.7298 
   0.000216691      75.4941 
   0.000216749      80.7494 
   0.000216807      86.5594 
   0.000216864      92.9962 
   0.000216922      100.142 
   0.000216966      106.021 
   0.000217009      112.394 
   0.000217052      119.305 
   0.000217096      126.806 
   0.000217139      134.946 
   0.000217182      143.781 
   0.000217226      153.365 
   0.000217269      163.753 
   0.000217312      174.995 
   0.000217356       187.14 
   0.000217399      200.224 
   0.000217442      214.275 
     0.0002175      234.526 
   0.000217558       256.47 
   0.000217616      279.977 
   0.000217702      317.608 
   0.000217864      390.514 
   0.000217939      422.162 
   0.000217996      443.416 
   0.000218052      461.639 
   0.000218108      475.989 
   0.000218145       483.08 
   0.000218181      488.159 
   0.000218218      491.124 
    0.00021825      491.938 
   0.000218287      490.812 
   0.000218317      488.293 
   0.000218364      481.495 
   0.000218411      471.439 
   0.000218458      458.443 
   0.000218505      442.899 
   0.000218565      420.296 
   0.000218625      395.299 
   0.000218841      298.631 
   0.000218917      266.621 
    0.00021898      242.135 
   0.000219035      222.295 
    0.00021909       203.82 
   0.000219147      186.753 
   0.000219191      174.221 
   0.000219236      162.643 
    0.00021928      152.177 
   0.000219323      142.793 
   0.000219365      134.253 
   0.000219407      126.364 
   0.000219463      116.726 
    0.00021952      108.064 
   0.000219576      100.272 
   0.000219633      93.2553 
   0.000219689      86.9261 
   0.000219749      80.8821 
    0.00021981      75.2945 
   0.000219872      70.2648 
   0.000219933      65.7252 
   0.000219995      61.6172 
   0.000220056      57.9222 
   0.000220115      54.6172 
   0.000220175       51.597 
   0.000220235      48.8309 
   0.000220315      45.4927 
   0.000220381      42.9833 
    0.00022046      40.2594 
    0.00022054      37.8062 
   0.000220619      35.5901 
   0.000220699      33.5826 
   0.000220778      31.7594 
    0.00022086      30.0523 
   0.000220942      28.4988 
   0.000220997        27.54 
   0.000221106      25.7873 
   0.000221215      24.2293 
   0.000221317      22.9286 
   0.000221435      21.5876 
    0.00022156       20.322 
   0.000221694        19.13 
   0.000221826      18.1031 
   0.000221932      17.3684 
    0.00022204      16.6922 
   0.000222189       15.873 
   0.000222337      15.1673 
   0.000222486      14.5633 
   0.000222634      14.0529 
   0.000222777      13.6491 
   0.000222923      13.3295 
   0.000223051      13.1379 
   0.000223187      13.0322 
   0.000223606      12.9563 
   0.000223805       12.902 
   0.000223894      12.9223 
   0.000224017        13.03 
   0.000224139      13.2401 
   0.000224261      13.5523 
   0.000224357      13.8658 
   0.000224458      14.2743 
    0.00022456      14.7668 
   0.000224662      15.3564 
   0.000224764      16.0601 
   0.000224832      16.6037 
   0.000224916      17.3774 
   0.000224992      18.1788 
   0.000225068      19.1002 
   0.000225144      20.1641 
   0.000225194      20.9664 
   0.000225245      21.8551 
   0.000225305      23.0461 
   0.000225358      24.2191 
    0.00022541      25.5398 
   0.000225463      27.0345 
   0.000225515      28.7362 
   0.000225566      30.6172 
   0.000225613      32.6201 
   0.000225645      34.1152 
   0.000225677      35.7591 
   0.000225708      37.5738 
    0.00022574      39.5856 
   0.000225771       41.826 
   0.000225803      44.3331 
   0.000225829      46.6589 
   0.000225855      49.2329 
   0.000225881      52.0919 
   0.000225908      55.2786 
   0.000225934      58.8427 
   0.000225956       62.087 
   0.000225981      66.3671 
      0.000226      69.9214 
    0.00022602       73.806 
   0.000226039       78.056 
   0.000226061      83.4706 
   0.000226085      89.9155 
   0.000226108      97.1315 
   0.000226129      104.267 
    0.00022615      112.153 
   0.000226171      120.862 
   0.000226192      130.468 
   0.000226213      141.048 
   0.000226233      151.869 
   0.000226252       163.23 
   0.000226271      175.554 
   0.000226292       190.44 
   0.000226313      206.643 
   0.000226334      224.219 
   0.000226355      243.212 
   0.000226376      263.654 
   0.000226397      285.557 
   0.000226418      308.917 
   0.000226446      342.277 
   0.000226474      378.038 
   0.000226509      425.767 
   0.000226551      486.606 
   0.000226663      654.975 
   0.000226705      713.865 
   0.000226733      749.743 
   0.000226761      782.002 
   0.000226791      811.179 
   0.000226822      835.776 
   0.000226844      849.666 
   0.000226867      859.407 
   0.000226889      865.153 
    0.00022691      866.831 
   0.000226935      864.198 
   0.000226961      856.121 
   0.000226988       841.94 
   0.000227016      822.269 
   0.000227037      803.019 
   0.000227063      777.047 
   0.000227089      745.937 
   0.000227117      709.779 
   0.000227159      650.679 
   0.000227277      474.646 
   0.000227311      426.475 
   0.000227345      379.739 
   0.000227369      348.969 
   0.000227394      319.959 
   0.000227418      292.806 
   0.000227439      270.151 
   0.000227458      251.461 
   0.000227476      234.935 
   0.000227493      220.364 
   0.000227511      205.751 
    0.00022753      191.267 
   0.000227549      177.856 
   0.000227569      165.474 
   0.000227585      155.732 
   0.000227605      144.637 
   0.000227625      134.902 
   0.000227643      126.624 
    0.00022766      119.177 
    0.00022768      111.512 
   0.000227698      105.284 
   0.000227715      99.5651 
   0.000227735       93.689 
   0.000227757      87.7676 
   0.000227775      83.5093 
   0.000227794      79.2194 
   0.000227815      74.9942 
   0.000227837      70.9795 
   0.000227859      67.3611 
   0.000227881      64.0952 
   0.000227903      61.1429 
   0.000227931      57.7633 
   0.000227961      54.6419 
   0.000227986       52.317 
   0.000228012      50.1115 
   0.000228039      48.0319 
   0.000228067       46.185 
   0.000228107      43.7798 
   0.000228148      41.7221 
   0.000228191      39.8477 
   0.000228236      38.2087 
    0.00022828      36.8244 
   0.000228325      35.6589 
    0.00022837      34.6836 
   0.000228428      33.6667 
   0.000228484        32.91 
   0.000228534      32.3958 
   0.000228602      31.9332 
   0.000228672      31.6938 
   0.000228716      31.6564 
   0.000228792      31.7895 
   0.000228861      32.1168 
   0.000228928      32.6348 
   0.000228984      33.2168 
    0.00022904      33.9442 
   0.000229107      35.0144 
   0.000229174      36.3238 
   0.000229219      37.3413 
   0.000229281      38.9864 
   0.000229344      40.9091 
   0.000229407      43.1454 
   0.000229454      45.0553 
   0.000229509        47.59 
   0.000229549      49.6221 
   0.000229588      51.8568 
   0.000229643      55.2993 
   0.000229687      58.4722 
   0.000229731      62.0225 
   0.000229769      65.3302 
   0.000229813      69.7737 
   0.000229847      73.5027 
   0.000229881      77.6501 
   0.000229916      82.2184 
    0.00022995      87.3448 
   0.000229986      93.0686 
   0.000230021       99.423 
   0.000230057      106.752 
   0.000230084      112.809 
   0.000230111      119.395 
   0.000230139       126.56 
   0.000230166      134.356 
     0.0002302       145.03 
   0.000230234      156.876 
   0.000230256      165.477 
   0.000230283      176.577 
    0.00023031      188.594 
   0.000230338      201.577 
   0.000230365      215.573 
   0.000230395      232.572 
   0.000230427      251.781 
   0.000230459       272.95 
   0.000230492      295.669 
   0.000230524       319.88 
   0.000230568      354.739 
   0.000230618      396.857 
   0.000230753      516.554 
   0.000230799      555.316 
   0.000230843      588.897 
   0.000230883      616.276 
   0.000230919      637.543 
    0.00023095      652.195 
   0.000230988      665.537 
   0.000231026      673.458 
   0.000231059      675.733 
   0.000231081      674.734 
   0.000231112      670.064 
    0.00023115       659.13 
   0.000231189      642.848 
    0.00023122      625.985 
   0.000231257       602.41 
   0.000231293      575.517 
   0.000231349      530.536 
   0.000231441      449.231 
   0.000231517      381.718 
   0.000231563      343.383 
   0.000231609      307.504 
    0.00023164      285.162 
   0.000231671      264.169 
   0.000231701      244.561 
   0.000231732      226.344 
   0.000231763      209.494 
   0.000231793      193.973 
   0.000231824      179.721 
   0.000231853      167.297 
   0.000231881      156.468 
   0.000231908      146.496 
   0.000231936      137.322 
   0.000231963      128.887 
   0.000231991      121.134 
   0.000232019      114.008 
   0.000232046      107.454 
   0.000232075      101.104 
   0.000232106      94.9908 
   0.000232137      89.4062 
   0.000232167      84.2972 
   0.000232198      79.6161 
   0.000232229      75.3198 
   0.000232259      71.3696 
    0.00023229      67.7309 
   0.000232333      63.1024 
   0.000232374       59.092 
   0.000232416      55.4691 
   0.000232457      52.1857 
   0.000232499      49.2007 
   0.000232541      46.3827 
   0.000232587      43.6395 
   0.000232633      41.1473 
   0.000232679       38.876 
   0.000232725      36.8001 
   0.000232771      34.8974 
   0.000232822      33.0026 
   0.000232872      31.2693 
   0.000232938      29.1782 
   0.000233005      27.3059 
   0.000233062      25.8477 
   0.000233134      24.1895 
   0.000233206      22.6998 
   0.000233278      21.3563 
   0.000233351      20.1405 
   0.000233423      19.0372 
   0.000233506       17.887 
   0.000233589      16.8554 
   0.000233672      15.9324 
   0.000233755       15.112 
   0.000233839      14.3909 
   0.000233912       13.832 
   0.000234004      13.2322 
   0.000234103      12.6848 
   0.000234463      10.9111 
   0.000234565      10.4284 
   0.000234643      10.1149 
   0.000234706      9.92323 
   0.000234775      9.77927 
    0.00023486      9.68689 
   0.000235006      9.59167 
   0.000235072      9.49489 
   0.000235135      9.33458 
   0.000235193      9.11949 
   0.000235259      8.80311 
   0.000235337      8.35671 
   0.000235472      7.53164 
   0.000235527      7.21984 
   0.000235587       6.9111 
   0.000235647      6.64229 
   0.000235707      6.41284 
   0.000235767      6.21843 
   0.000235858      5.97891 
   0.000235948      5.78338 
   0.000236068      5.56381 
   0.000236249      5.28193 
   0.000236429      5.03356 
   0.000236641      4.77337 
   0.000236869      4.52543 
   0.000237096       4.3052 
   0.000237324       4.1087 
   0.000237552      3.93274 
   0.000237816      3.75079 
   0.000238154      3.54811 
   0.000238491      3.37358 
   0.000238829      3.22327 
   0.000239167      3.09387 
   0.000239504      2.98273 
   0.000239821      2.89333 
   0.000240138      2.81712 
   0.000240455      2.75375 
   0.000240771      2.70393 
   0.000241088      2.67019 
   0.000241336      2.65972 
   0.000241506      2.66645 
   0.000241634      2.68644 
   0.000241719      2.71498 
   0.000241782      2.75234 
   0.000241825      2.79007 
   0.000241867      2.84338 
   0.000241899      2.89753 
   0.000241931      2.96787 
   0.000241963      3.05906 
   0.000241984      3.13419 
   0.000242005      3.22306 
   0.000242027      3.32787 
   0.000242048      3.45105 
   0.000242069      3.59529 
    0.00024209      3.76349 
   0.000242108       3.9287 
   0.000242131      4.16538 
   0.000242146      4.34402 
   0.000242161       4.5408 
   0.000242176      4.75697 
   0.000242191      4.99374 
   0.000242206      5.25234 
   0.000242221      5.53394 
   0.000242237      5.83963 
   0.000242252      6.17044 
   0.000242267      6.52728 
   0.000242282      6.91092 
   0.000242304      7.53796 
   0.000242327        8.228 
    0.00024235      8.98051 
   0.000242372      9.79347 
   0.000242395      10.6658 
   0.000242417      11.5934 
   0.000242447      12.9064 
   0.000242491      14.9487 
   0.000242578      19.1026 
   0.000242619      20.9083 
   0.000242644      21.9314 
   0.000242667      22.7894 
    0.00024269      23.5465 
   0.000242712      24.1592 
   0.000242741      24.7891 
   0.000242765      25.1368 
    0.00024279      25.3496 
   0.000242807      25.3903 
   0.000242828      25.3297 
   0.000242852       25.105 
   0.000242877      24.7194 
   0.000242895      24.3228 
   0.000242918      23.7103 
   0.000242941      22.9795 
   0.000242965      22.1442 
   0.000242998      20.7732 
   0.000243034       19.198 
   0.000243144      13.9326 
   0.000243171      12.7018 
   0.000243198      11.5297 
   0.000243225       10.429 
   0.000243245      9.66339 
   0.000243265      8.95885 
   0.000243285      8.30105 
   0.000243304      7.69075 
   0.000243324      7.12792 
   0.000243344      6.61195 
   0.000243363      6.14161 
   0.000243383      5.71525 
   0.000243402      5.33083 
   0.000243422      4.98602 
   0.000243442      4.67829 
   0.000243457      4.46664 
   0.000243474      4.25066 
   0.000243491      4.05689 
   0.000243507      3.88359 
   0.000243524      3.72908 
   0.000243541      3.59171 
   0.000243558      3.46992 
   0.000243583      3.31319 
   0.000243609      3.18351 
   0.000243634      3.07667 
    0.00024366      2.98896 
   0.000243685      2.91715 
   0.000243719      2.84137 
   0.000243752      2.78346 
   0.000243786      2.73911 
   0.000243837      2.69088 
   0.000243888      2.65767 
   0.000243955      2.62792 
   0.000244042      2.60396 
     0.0002442      2.58082 
   0.000244411      2.57027 
   0.000244674      2.57453 
   0.000245068      2.60303 
   0.000245463      2.65129 
   0.000245857      2.71743 
   0.000246251      2.80181 
   0.000246615      2.89713 
   0.000246918      2.99111 
   0.000247221      3.10045 
   0.000247525      3.22941 
   0.000247676        3.307 
   0.000247777      3.37009 
   0.000247879      3.45085 
   0.000247954      3.52972 
    0.00024803      3.62997 
   0.000248106      3.75516 
     0.0002482      3.94361 
   0.000248379      4.34296 
   0.000248453      4.48236 
   0.000248519      4.57289 
   0.000248581      4.62295 
   0.000248644      4.63825 
   0.000248714      4.61922 
   0.000248824      4.54342 
   0.000248948       4.4548 
   0.000249035       4.4222 
   0.000249073      4.41882 
   0.000249138      4.42851 
    0.00024922      4.46543 
   0.000249307      4.52945 
    0.00024942      4.63938 
   0.000249589       4.8404 
   0.000249759      5.07248 
   0.000249928      5.33528 
   0.000250098      5.63813 
   0.000250211      5.87293 
   0.000250299      6.08094 
   0.000250386      6.31672 
   0.000250474      6.58263 
   0.000250612      7.05394 
   0.000250844      7.87651 
   0.000251149      8.85955 
   0.000251252      9.23825 
    0.00025133       9.5687 
    0.00025143       10.059 
    0.00025153      10.6323 
   0.000251621      11.2357 
   0.000251696      11.7901 
   0.000251771      12.4022 
   0.000251859      13.1981 
   0.000251946      14.0844 
   0.000252018      14.9103 
    0.00025209      15.8284 
   0.000252153      16.7101 
   0.000252215      17.6838 
   0.000252288      18.9401 
   0.000252336      19.8688 
   0.000252384      20.8813 
   0.000252432      21.9885 
    0.00025248      23.2034 
   0.000252527      24.5062 
   0.000252574      25.9428 
   0.000252605      26.9848 
   0.000252654       28.738 
   0.000252702      30.7002 
   0.000252738      32.3311 
   0.000252774      34.1192 
   0.000252798      35.4095 
    0.00025284      37.8378 
   0.000252871      39.8558 
   0.000252902      42.0675 
   0.000252933      44.4996 
   0.000252964       47.183 
   0.000252998        50.52 
   0.000253024       53.293 
   0.000253051      56.3295 
   0.000253076      59.6619 
   0.000253103      63.3269 
   0.000253131      67.8394 
    0.00025316      72.8766 
   0.000253189      78.5097 
   0.000253218      84.8174 
   0.000253237      89.4399 
   0.000253257      94.4284 
   0.000253276      99.8119 
   0.000253295      105.621 
   0.000253314      111.886 
   0.000253334      118.641 
   0.000253353      125.918 
   0.000253372       133.75 
   0.000253391      142.171 
   0.000253411      151.212 
    0.00025343      160.905 
   0.000253449      171.279 
   0.000253469      182.361 
   0.000253497      200.362 
   0.000253526       220.07 
   0.000253555      241.521 
   0.000253578      259.939 
   0.000253605      282.814 
   0.000253632      307.128 
   0.000253673      346.072 
   0.000253721      395.649 
   0.000253846      530.992 
   0.000253885      570.654 
   0.000253923      607.352 
   0.000253962      639.885 
   0.000253994      663.415 
   0.000254021      679.475 
   0.000254048      692.221 
   0.000254075      701.413 
   0.000254107      707.394 
   0.000254127       708.52 
    0.00025415      707.092 
   0.000254179      701.506 
   0.000254205      692.482 
    0.00025423      680.847 
   0.000254256      666.341 
   0.000254293      639.716 
   0.000254328      610.676 
   0.000254362      578.198 
   0.000254401      539.141 
   0.000254536      394.288 
   0.000254574      354.701 
    0.00025461      320.013 
   0.000254643      290.104 
   0.000254675      262.285 
     0.0002547      242.861 
   0.000254725      224.697 
   0.000254754      204.938 
   0.000254782      186.888 
   0.000254802      175.777 
   0.000254821      165.377 
    0.00025484      155.662 
   0.000254859      146.603 
   0.000254879       138.17 
   0.000254905       127.72 
   0.000254931       118.27 
   0.000254957       109.74 
   0.000254983       102.05 
   0.000255009      95.1232 
   0.000255037      88.4496 
   0.000255066      82.2935 
   0.000255094      76.8122 
   0.000255123      71.9273 
   0.000255152      67.5682 
   0.000255183      63.4728 
   0.000255216      59.4751 
    0.00025525      55.9482 
   0.000255284      52.8271 
   0.000255317      50.0566 
   0.000255351      47.5899 
   0.000255389      45.0837 
   0.000255428      42.8748 
   0.000255466      40.9218 
   0.000255505      39.1903 
   0.000255543      37.6518 
   0.000255582      36.2826 
    0.00025564      34.5035 
   0.000255681      33.4169 
   0.000255746      31.9446 
   0.000255811      30.7407 
   0.000255876      29.7668 
   0.000255941      28.9933 
   0.000256006      28.3973 
   0.000256064      28.0023 
   0.000256121      27.7241 
   0.000256208       27.511 
   0.000256237      27.4919 
   0.000256316      27.5688 
   0.000256396      27.8327 
   0.000256449      28.1121 
   0.000256534      28.7369 
   0.000256619      29.5832 
   0.000256703      30.6448 
    0.00025679      31.9895 
   0.000256869      33.4368 
   0.000256945      35.0813 
   0.000257014      36.7821 
   0.000257087      38.8501 
   0.000257153      41.0105 
   0.000257204      42.8538 
    0.00025727      45.5581 
   0.000257332      48.5046 
   0.000257391      51.6353 
   0.000257449      55.1891 
   0.000257489      57.8264 
   0.000257528       60.705 
   0.000257567      63.8515 
   0.000257606      67.2956 
   0.000257645      71.0712 
   0.000257684      75.2165 
   0.000257723      79.7744 
   0.000257762      84.7932 
   0.000257801      90.3267 
    0.00025784      96.4345 
   0.000257879      103.182 
   0.000257918      110.641 
   0.000257957      118.886 
   0.000257997      127.998 
   0.000258036      138.059 
   0.000258075      149.151 
   0.000258114      161.351 
   0.000258153       174.73 
   0.000258192      189.346 
   0.000258231      205.239 
    0.00025827      222.422 
   0.000258309      240.879 
   0.000258348      260.552 
   0.000258407      292.106 
   0.000258485      337.044 
   0.000258606        408.2 
   0.000258653      434.164 
     0.0002587      458.073 
   0.000258747      479.135 
   0.000258788      494.775 
   0.000258824      505.721 
    0.00025886      513.958 
   0.000258896      519.294 
   0.000258927      521.464 
   0.000258941      521.697 
   0.000258981      519.804 
   0.000259016      515.011 
   0.000259051      507.403 
   0.000259087       497.15 
   0.000259122      484.477 
   0.000259169      464.352 
   0.000259216      441.158 
   0.000259263      415.677 
   0.000259348       365.63 
   0.000259446      308.255 
    0.00025949      283.704 
   0.000259538      257.914 
   0.000259587      233.567 
   0.000259612      221.982 
   0.000259656      202.651 
   0.000259694       187.13 
   0.000259727      174.911 
   0.000259758      164.119 
   0.000259789      154.138 
    0.00025982      144.675 
    0.00025986      133.559 
   0.000259893      125.354 
   0.000259926      117.668 
   0.000259959      110.596 
   0.000259992      104.091 
   0.000260025      98.1061 
   0.000260061        92.05 
     0.0002601      86.1225 
   0.000260142      80.4714 
   0.000260183      75.3587 
    0.00026023      70.1507 
   0.000260279      65.2244 
   0.000260328      60.8215 
   0.000260378      56.8748 
   0.000260427      53.3266 
   0.000260478      50.0576 
   0.000260531      46.9828 
   0.000260583      44.2123 
   0.000260636      41.7084 
   0.000260689      39.4388 
   0.000260742      37.3758 
   0.000260803      35.2238 
   0.000260863      33.2841 
   0.000260924      31.5306 
   0.000260985      29.9413 
   0.000261046      28.4972 
   0.000261121      26.8878 
   0.000261204      25.3208 
   0.000261286      23.9323 
   0.000261369      22.6988 
   0.000261451       21.601 
   0.000261545      20.4911 
   0.000261624      19.6703 
   0.000261703      18.9347 
   0.000261821      17.9735 
   0.000261939      17.1629 
   0.000262057      16.4851 
   0.000262179      15.9103 
   0.000262308      15.4258 
   0.000262437      15.0611 
   0.000262567      14.8098 
   0.000262696      14.6687 
   0.000262796      14.6352 
   0.000262896       14.669 
   0.000263003      14.7818 
   0.000263109      14.9788 
   0.000263216       15.267 
   0.000263322      15.6562 
   0.000263393       15.978 
   0.000263497      16.5487 
   0.000263574      17.0652 
   0.000263652      17.6682 
    0.00026373      18.3695 
   0.000263808      19.1839 
   0.000263885      20.1293 
   0.000263963      21.2285 
   0.000264015      22.0603 
   0.000264067       22.983 
   0.000264118      24.0087 
    0.00026417      25.1517 
   0.000264222       26.429 
   0.000264273      27.8233 
   0.000264323       29.388 
   0.000264374      31.1513 
   0.000264424      33.1477 
   0.000264475        35.42 
   0.000264514      37.4304 
   0.000264548      39.3518 
   0.000264583      41.4713 
   0.000264617      43.8174 
   0.000264651       46.423 
   0.000264685      49.3271 
   0.000264719      52.5754 
   0.000264754      56.2214 
   0.000264784      59.8028 
   0.000264812       63.499 
    0.00026484      67.5892 
   0.000264871      72.6565 
   0.000264902      78.3471 
   0.000264923      82.5284 
   0.000264943      87.0511 
   0.000264964      91.9437 
   0.000264985      97.2364 
   0.000265005      102.961 
   0.000265026      109.149 
   0.000265047      115.835 
   0.000265068      123.052 
   0.000265088      130.835 
   0.000265109      139.217 
    0.00026513      148.232 
   0.000265151      157.909 
   0.000265171      168.279 
   0.000265192      179.367 
   0.000265213      191.194 
   0.000265244      210.357 
   0.000265275      231.252 
   0.000265306      253.873 
   0.000265337      278.171 
   0.000265368      304.046 
    0.00026541      340.716 
   0.000265461      389.253 
   0.000265565       489.19 
   0.000265606      527.293 
   0.000265648      562.501 
   0.000265679      586.255 
    0.00026571      607.173 
   0.000265741      624.793 
   0.000265774      639.252 
   0.000265807      649.467 
    0.00026584      654.803 
   0.000265859      655.599 
    0.00026589      653.364 
   0.000265913      648.825 
    0.00026594      640.586 
   0.000265967      629.292 
   0.000265994      615.141 
   0.000266031      591.293 
   0.000266062      568.149 
   0.000266104      533.572 
   0.000266145      495.887 
    0.00026628      366.524 
   0.000266321      328.451 
   0.000266353      301.289 
    0.00026639      270.602 
   0.000266415      251.418 
    0.00026644       233.31 
   0.000266462      217.678 
   0.000266494      197.863 
   0.000266514      185.607 
   0.000266535      174.099 
   0.000266556       163.32 
   0.000266576      153.247 
   0.000266597      143.852 
   0.000266618      135.106 
   0.000266639      126.977 
   0.000266659      119.432 
    0.00026668      112.437 
   0.000266701      105.958 
   0.000266721      99.9612 
   0.000266742      94.4139 
   0.000266763       89.284 
   0.000266784      84.5406 
   0.000266812      78.6985 
    0.00026684      73.4398 
   0.000266868      68.7019 
   0.000266896      64.4281 
   0.000266924      60.5669 
   0.000266954      56.8266 
   0.000266985      53.3483 
   0.000267016      50.2187 
   0.000267047      47.3948 
   0.000267078      44.8391 
   0.000267114      42.1809 
   0.000267144      40.1487 
   0.000267174      38.2883 
    0.00026722      35.7791 
   0.000267265      33.5604 
   0.000267311      31.5881 
   0.000267341      30.3922 
   0.000267386      28.7913 
    0.00026743      27.3478 
   0.000267474      26.0418 
   0.000267519      24.8564 
   0.000267563      23.7775 
    0.00026763      22.3334 
   0.000267696      21.0695 
   0.000267754      20.0987 
   0.000267812        19.23 
   0.000267889      18.2111 
   0.000267966      17.3307 
   0.000268031      16.6754 
   0.000268113      15.9665 
   0.000268212      15.2287 
    0.00026832      14.5412 
   0.000268442      13.8796 
   0.000268574      13.2608 
   0.000268686      12.8131 
   0.000268803      12.4263 
   0.000268905       12.165 
   0.000269006      11.9686 
   0.000269107      11.8322 
   0.000269208      11.7499 
   0.000269331      11.7153 
   0.000269436      11.7382 
   0.000269595      11.8602 
   0.000269753      12.0876 
   0.000269859      12.3008 
   0.000269964       12.568 
    0.00027007       12.895 
   0.000270176      13.2885 
   0.000270275      13.7256 
   0.000270402      14.3781 
   0.000270535      15.1668 
   0.000270679      16.1394 
   0.000270804      17.1022 
   0.000270905      17.9721 
   0.000270992      18.8195 
   0.000271088      19.8792 
   0.000271172      20.9188 
   0.000271255      22.0886 
   0.000271338      23.4057 
   0.000271422      24.8894 
   0.000271493      26.3033 
   0.000271564      27.8726 
   0.000271642      29.8134 
    0.00027171      31.6699 
   0.000271775      33.6648 
    0.00027184       35.883 
   0.000271905      38.3793 
   0.000271968      41.0557 
   0.000272022      43.6152 
   0.000272069      46.0461 
   0.000272118      48.8148 
   0.000272171       52.165 
   0.000272226      55.9483 
   0.000272266      59.0748 
   0.000272307      62.4795 
   0.000272355      66.9241 
   0.000272398      71.3399 
   0.000272441      76.0764 
   0.000272483      81.2891 
   0.000272527      87.2658 
    0.00027257      93.7978 
   0.000272613      101.026 
   0.000272657      109.028 
   0.000272692      116.138 
   0.000272728      124.068 
   0.000272766      133.137 
   0.000272807      143.747 
   0.000272841      153.652 
   0.000272876      164.313 
   0.000272911      175.753 
   0.000272946      187.988 
   0.000272985        202.4 
   0.000273023      217.757 
   0.000273081      242.459 
    0.00027314      269.585 
    0.00027324       317.97 
   0.000273324      358.647 
   0.000273374       381.38 
    0.00027343       405.11 
   0.000273474      421.522 
   0.000273523      437.059 
   0.000273568      447.931 
   0.000273613      455.426 
   0.000273656       459.22 
   0.000273682      459.832 
   0.000273723      458.251 
   0.000273759      454.236 
   0.000273796      447.857 
   0.000273838      437.695 
    0.00027388      424.836 
   0.000273909      414.936 
   0.000273965      392.481 
   0.000274021      367.321 
   0.000274108      325.654 
   0.000274214       274.05 
   0.000274272      246.988 
   0.000274331      221.612 
   0.000274372      204.953 
   0.000274415      188.573 
   0.000274459      173.409 
   0.000274502       159.46 
   0.000274545      146.696 
   0.000274589      135.063 
   0.000274632      124.496 
   0.000274675       114.92 
   0.000274711       107.71 
   0.000274753      99.9264 
   0.000274795      92.8731 
   0.000274838      86.4802 
    0.00027488      80.6818 
   0.000274922      75.4173 
   0.000274966      70.5142 
   0.000275009      66.0602 
   0.000275052      62.0068 
   0.000275095      58.3108 
   0.000275139      54.9338 
   0.000275182      51.8419 
   0.000275225      49.0052 
   0.000275269      46.3973 
   0.000275327      43.1986 
   0.000275386      40.3251 
   0.000275444      37.7348 
   0.000275503       35.392 
   0.000275561      33.2665 
   0.000275624       31.196 
   0.000275689      29.2573 
   0.000275754      27.4998 
   0.000275819      25.9016 
   0.000275884       24.444 
   0.000275949       23.111 
   0.000276014      21.8886 
     0.0002761      20.4106 
   0.000276187      19.0841 
   0.000276274       17.889 
   0.000276352      16.9021 
   0.000276431      15.9991 
   0.000276536      14.9097 
   0.000276641      13.9343 
   0.000276737      13.1308 
   0.000276824      12.4668 
    0.00027691      11.8553 
    0.00027704       11.025 
    0.00027717      10.2853 
     0.0002773      9.62342 
   0.000277436      9.00527 
   0.000277582      8.40813 
   0.000277728      7.87405 
   0.000277874      7.39443 
    0.00027802      6.96209 
   0.000278167      6.57103 
   0.000278327      6.18287 
   0.000278488      5.83304 
   0.000278649      5.51759 
   0.000278809      5.23573 
   0.000278922      5.06115 
   0.000279035      4.91253 
   0.000279148      4.79911 
   0.000279223      4.74726 
   0.000279336      4.70581 
   0.000279572      4.68141 
   0.000279661      4.64205 
   0.000279738      4.57354 
   0.000279815      4.47101 
   0.000279892      4.33849 
   0.000280115      3.88827 
   0.000280203      3.72718 
    0.00028029      3.58944 
   0.000280378      3.47537 
   0.000280466      3.38125 
   0.000280583      3.27805 
   0.000280758      3.15118 
   0.000280992      3.00808 
   0.000281206      2.89355 
   0.000281419      2.79246 
   0.000281633      2.70462 
   0.000281847      2.63078 
   0.000282061      2.57293 
   0.000282232      2.54077 
   0.000282382      2.52625 
   0.000282432      2.52501 
   0.000282566      2.53341 
   0.000282667       2.5552 
   0.000282735      2.58062 
   0.000282803      2.61897 
   0.000282854      2.66005 
   0.000282905      2.71663 
   0.000282938      2.76636 
   0.000282972      2.82912 
   0.000283006      2.90894 
   0.000283032      2.98313 
   0.000283057      3.07272 
   0.000283083      3.18557 
   0.000283102      3.28112 
   0.000283121      3.39135 
    0.00028314       3.5185 
   0.000283159      3.66513 
   0.000283178       3.8341 
   0.000283196      4.02863 
   0.000283215      4.25229 
   0.000283229      4.44151 
   0.000283243      4.65114 
   0.000283258       4.8831 
   0.000283272      5.13947 
   0.000283286      5.42242 
     0.0002833      5.73426 
   0.000283314      6.07742 
   0.000283328      6.45441 
   0.000283342       6.8679 
   0.000283356       7.3206 
    0.00028337      7.81533 
   0.000283388      8.48022 
     0.0002834       9.0085 
   0.000283413      9.57698 
   0.000283425      10.1877 
   0.000283438      10.8427 
    0.00028345       11.544 
   0.000283463      12.2936 
   0.000283475      13.0933 
   0.000283494      14.3908 
   0.000283513      15.8108 
   0.000283532       17.358 
   0.000283551      19.0365 
   0.000283569      20.8493 
    0.00028359      23.0383 
   0.000283612      25.5274 
   0.000283635      28.2021 
   0.000283657       31.056 
   0.000283679      34.0789 
    0.00028371      38.5377 
   0.000283742      43.4435 
   0.000283789      50.9579 
   0.000283851      60.9591 
   0.000283882      65.7596 
   0.000283917      70.8311 
   0.000283943      74.3009 
   0.000283968      77.2268 
   0.000283993      79.7687 
   0.000284018      81.8789 
   0.000284041      83.4468 
   0.000284066      84.6066 
   0.000284091      85.2408 
   0.000284107      85.3649 
   0.000284134      85.0539 
   0.000284159      84.1818 
   0.000284185      82.7663 
   0.000284214       80.513 
   0.000284239      78.1076 
   0.000284264      75.3013 
   0.000284288      72.1458 
    0.00028432      67.6599 
    0.00028436       61.624 
   0.000284471      43.7997 
   0.000284506      38.3332 
   0.000284535      34.2123 
   0.000284556      31.2842 
   0.000284577      28.5104 
   0.000284598      25.9003 
    0.00028462      23.4602 
   0.000284638      21.4631 
   0.000284657      19.5998 
   0.000284676      17.8691 
   0.000284694      16.2689 
   0.000284708      15.1523 
   0.000284722      14.1054 
   0.000284736      13.1261 
    0.00028475      12.2121 
   0.000284764      11.3609 
   0.000284777      10.6444 
   0.000284793      9.80741 
   0.000284809      9.04132 
   0.000284825      8.34189 
   0.000284841      7.70492 
   0.000284856      7.12622 
   0.000284872      6.60166 
   0.000284888       6.1272 
   0.000284904      5.69894 
    0.00028492      5.31314 
   0.000284936      4.96619 
   0.000284952       4.6547 
   0.000284968      4.37544 
   0.000284984      4.12542 
      0.000285      3.90182 
   0.000285016      3.70202 
   0.000285035      3.49337 
   0.000285051      3.33416 
   0.000285067      3.19243 
   0.000285083      3.06627 
     0.0002851       2.9539 
   0.000285121      2.82283 
   0.000285143      2.71018 
   0.000285165       2.6131 
   0.000285186      2.52915 
   0.000285219      2.42338 
   0.000285252      2.33681 
   0.000285284      2.26504 
   0.000285328      2.18665 
   0.000285371      2.12281 
   0.000285433      2.04868 
   0.000285496      1.98894 
   0.000285579      1.92416 
   0.000285663      1.87102 
   0.000285788      1.80616 
   0.000285913      1.75378 
   0.000286038      1.71024 
   0.000286224      1.65711 
    0.00028641       1.6141 
    0.00028669      1.56269 
   0.000286969      1.52237 
   0.000287156      1.50015 
   0.000287529      1.46454 
   0.000287903      1.43898 
   0.000288152      1.43046 
   0.000288277      1.43236 
   0.000288401      1.44124 
   0.000288526       1.4579 
   0.000288773      1.49816 
   0.000288885      1.50649 
   0.000288906      1.50671 
   0.000289011      1.50113 
   0.000289145      1.48093 
   0.000289374      1.43886 
   0.000289508      1.42293 
   0.000289679      1.41478 
    0.00028975      1.41429 
   0.000289954       1.4182 
   0.000290351      1.43655 
   0.000290747      1.46449 
   0.000291171      1.50552 
    0.00029155        1.552 
    0.00029193      1.61082 
   0.000292184      1.65826 
   0.000292437      1.71368 
   0.000292663      1.77318 
   0.000292761      1.80559 
   0.000292859      1.84666 
   0.000292933      1.88743 
   0.000293007      1.94192 
   0.000293056      1.98885 
   0.000293106      2.04666 
   0.000293155      2.11736 
   0.000293204      2.20273 
   0.000293253      2.30394 
   0.000293302      2.42123 
   0.000293352      2.55355 
   0.000293415      2.74254 
   0.000293535       3.1171 
   0.000293591      3.27838 
   0.000293645      3.40885 
    0.00029369      3.49491 
    0.00029373      3.55015 
   0.000293775      3.58428 
   0.000293806      3.59107 
   0.000293847      3.57856 
   0.000293892      3.53938 
   0.000293937      3.47723 
   0.000293986      3.38997 
   0.000294064      3.22291 
   0.000294143      3.05141 
    0.00029421      2.92052 
    0.00029426      2.83873 
    0.00029431       2.7738 
    0.00029436      2.72655 
    0.00029441      2.69659 
   0.000294461      2.68269 
   0.000294477      2.68134 
   0.000294511      2.68314 
   0.000294578       2.7028 
   0.000294645      2.74035 
    0.00029474      2.81813 
   0.000294836       2.9161 
   0.000295183      3.31898 
   0.000295383      3.52127 
   0.000295555      3.69542 
   0.000295664      3.82407 
   0.000295773      3.97431 
   0.000295883      4.14824 
   0.000295992      4.34581 
   0.000296101      4.56668 
   0.000296212      4.81339 
   0.000296322      5.08596 
   0.000296432      5.38717 
   0.000296542      5.72075 
   0.000296653      6.09134 
   0.000296747      6.44279 
   0.000296834       6.7961 
    0.00029692        7.183 
   0.000297007      7.60789 
   0.000297094      8.07592 
   0.000297179      8.58468 
   0.000297262      9.12921 
   0.000297344      9.73222 
   0.000297427      10.4025 
   0.000297509      11.1505 
   0.000297592       11.989 
   0.000297666      12.8226 
   0.000297739       13.753 
   0.000297812      14.7962 
   0.000297861      15.5636 
    0.00029791      16.3966 
   0.000297959       17.303 
   0.000298014      18.4217 
    0.00029806      19.4448 
   0.000298106      20.5616 
   0.000298152      21.7841 
   0.000298198      23.1268 
   0.000298246      24.6897 
   0.000298282      25.9475 
   0.000298317      27.3108 
   0.000298353      28.7922 
   0.000298392      30.5815 
   0.000298435      32.7503 
   0.000298467      34.5782 
   0.000298501      36.6519 
   0.000298535      38.9295 
   0.000298571      41.5811 
   0.000298608       44.606 
   0.000298645      47.9858 
   0.000298678      51.3747 
   0.000298711      55.1379 
   0.000298745      59.4892 
   0.000298769      62.9106 
   0.000298794      66.6211 
   0.000298818      70.6471 
   0.000298843      75.0171 
   0.000298867      79.7612 
   0.000298892      84.9107 
   0.000298916      90.4985 
   0.000298941      96.5584 
   0.000298965      103.125 
    0.00029899      110.231 
   0.000299014      117.913 
   0.000299039      126.201 
   0.000299063      135.127 
   0.000299088      144.718 
   0.000299112      154.998 
   0.000299137      165.985 
   0.000299161      177.692 
   0.000299198      196.611 
   0.000299234      217.138 
   0.000299271      239.202 
   0.000299308      262.671 
   0.000299357      295.799 
   0.000299442      356.822 
   0.000299516      408.869 
   0.000299565      441.343 
   0.000299602      463.614 
   0.000299641      484.724 
   0.000299681      503.001 
   0.000299721      517.148 
   0.000299753       525.03 
   0.000299785      529.927 
   0.000299819      531.745 
   0.000299853      529.889 
   0.000299879      526.078 
   0.000299911      518.616 
   0.000299943      508.253 
   0.000299975      495.205 
   0.000300018      473.914 
   0.000300058      450.544 
   0.000300098      424.677 
   0.000300147       391.02 
    0.00030027      303.607 
   0.000300319      270.092 
   0.000300355      246.242 
   0.000300392      223.741 
   0.000300424       205.45 
   0.000300456      188.347 
   0.000300488      172.462 
   0.000300519      157.796 
   0.000300552      143.835 
   0.000300574      135.225 
   0.000300597      127.153 
   0.000300619        119.6 
   0.000300641      112.543 
   0.000300663      105.959 
   0.000300685      99.8244 
   0.000300708      93.8083 
   0.000300732      87.9536 
   0.000300757      82.5559 
   0.000300781      77.5819 
   0.000300806      72.9995 
    0.00030083      68.7777 
   0.000300855      64.8875 
   0.000300879      61.3012 
   0.000300904      57.9931 
   0.000300928      54.9392 
   0.000300953      52.1174 
   0.000300989      48.2755 
   0.000301026      44.8484 
   0.000301063      41.7822 
   0.000301098      39.1172 
   0.000301131      36.8679 
   0.000301164      34.8158 
   0.000301197      32.9386 
   0.000301219      31.7746 
   0.000301263      29.6338 
   0.000301312      27.5436 
    0.00030136      25.6783 
   0.000301408      24.0059 
   0.000301456      22.4999 
   0.000301504      21.1384 
   0.000301563      19.6438 
   0.000301606       18.659 
    0.00030167      17.3215 
   0.000301735      16.1293 
   0.000301799      15.0617 
   0.000301863      14.1014 
   0.000301924      13.2737 
   0.000301986      12.5201 
   0.000302047      11.8319 
   0.000302108      11.2016 
   0.000302169      10.6228 
    0.00030223        10.09 
   0.000302322      9.36665 
   0.000302413      8.72834 
   0.000302503      8.15933 
   0.000302594      7.64737 
   0.000302684      7.18502 
   0.000302775      6.76602 
   0.000302835      6.50812 
   0.000302938      6.10208 
   0.000303041       5.7356 
   0.000303145      5.40368 
   0.000303248      5.10206 
   0.000303351      4.82715 
   0.000303454      4.57588 
   0.000303557       4.3456 
    0.00030366      4.13405 
   0.000303808      3.85961 
   0.000303956      3.61472 
   0.000304104      3.39533 
   0.000304252      3.19808 
     0.0003044      3.02014 
   0.000304552      2.85472 
   0.000304706      2.70302 
    0.00030486      2.56553 
   0.000305015      2.44063 
   0.000305169       2.3269 
   0.000305359      2.20011 
   0.000305535      2.09522 
    0.00030571      2.00033 
   0.000305885      1.91438 
    0.00030606      1.83649 
   0.000306323       1.7332 
   0.000306586      1.64446 
   0.000306833      1.57298 
   0.000307073        1.514 
   0.000307312      1.46461 
   0.000307552      1.42465 
   0.000307791      1.39435 
   0.000307951      1.37984 
   0.000308142        1.369 
   0.000308333      1.36616 
    0.00030849      1.37069 
   0.000308647      1.38248 
   0.000308804      1.40293 
    0.00030896      1.43397 
   0.000309065      1.46185 
   0.000309169      1.49669 
   0.000309288      1.54657 
   0.000309367      1.58712 
   0.000309447      1.63469 
   0.000309526      1.69057 
   0.000309605      1.75641 
   0.000309684      1.83434 
   0.000309744      1.90239 
   0.000309803      1.98035 
   0.000309867      2.07768 
    0.00030991      2.15186 
   0.000309953      2.23498 
   0.000309995      2.32875 
   0.000310038      2.43541 
   0.000310081        2.558 
   0.000310113      2.66284 
   0.000310145      2.78126 
   0.000310175      2.91031 
   0.000310206      3.05796 
   0.000310229      3.18344 
   0.000310252      3.32403 
   0.000310275       3.4824 
   0.000310298      3.66178 
   0.000310321      3.86602 
   0.000310344      4.09967 
   0.000310367      4.36816 
   0.000310382      4.56962 
   0.000310401      4.84027 
   0.000310417      5.10606 
   0.000310434      5.40143 
    0.00031045      5.72996 
   0.000310466      6.09566 
   0.000310482      6.50293 
   0.000310499      6.95662 
   0.000310515      7.46203 
   0.000310531      8.02497 
   0.000310547      8.65172 
   0.000310564      9.34912 
   0.000310577      9.96606 
    0.00031059      10.6375 
   0.000310603      11.3677 
   0.000310616      12.1612 
   0.000310629      13.0228 
   0.000310642      13.9574 
   0.000310655      14.9701 
   0.000310668      16.0664 
   0.000310681      17.2516 
   0.000310695      18.5315 
    0.00031071      20.2113 
   0.000310724      21.8487 
   0.000310739      23.6195 
   0.000310753      25.5315 
   0.000310767      27.5921 
   0.000310781      29.8091 
   0.000310795      32.1897 
   0.000310809      34.7412 
   0.000310822      37.2592 
    0.00031084      40.9885 
   0.000310859      45.0286 
   0.000310877      49.3905 
   0.000310895      54.0829 
   0.000310913      59.1124 
   0.000310934      65.4653 
   0.000310955      72.2913 
   0.000310976      79.5848 
   0.000310997      87.3337 
   0.000311025      97.8512 
   0.000311052      109.016 
    0.00031108      121.188 
    0.00031112      139.384 
   0.000311216      184.343 
   0.000311247      198.016 
   0.000311279      211.453 
   0.000311311      223.676 
   0.000311343      234.362 
   0.000311372       242.42 
   0.000311399        248.5 
   0.000311427      253.068 
   0.000311456      255.819 
   0.000311483      256.692 
   0.000311504      256.107 
    0.00031153       253.96 
   0.000311554      250.552 
   0.000311577      246.203 
   0.000311599       240.79 
    0.00031163      231.881 
   0.000311662       220.79 
   0.000311694      208.243 
    0.00031173      192.882 
   0.000311783      168.651 
   0.000311854      135.415 
   0.000311892      118.286 
   0.000311919      106.674 
   0.000311946      95.6427 
   0.000311973      85.1636 
   0.000311995      77.3056 
   0.000312017      69.9361 
   0.000312034      64.7365 
   0.000312054      58.8103 
   0.000312073      53.2985 
   0.000312093      48.1954 
   0.000312113      43.4916 
   0.000312127      40.5714 
    0.00031214      37.8187 
   0.000312158      34.2917 
   0.000312176      31.0592 
   0.000312189      29.0604 
   0.000312202      26.9796 
   0.000312216      25.0399 
   0.000312229      23.2347 
   0.000312243      21.5573 
   0.000312257      19.9561 
   0.000312271      18.4763 
   0.000312285      17.1106 
   0.000312299       15.852 
   0.000312315      14.5118 
    0.00031233      13.3745 
   0.000312345      12.3386 
   0.000312361      11.3322 
   0.000312378       10.424 
   0.000312394      9.60536 
    0.00031241      8.86825 
   0.000312426      8.20507 
   0.000312443      7.60878 
   0.000312455      7.21157 
   0.000312471      6.72393 
   0.000312484      6.34054 
     0.0003125      5.95914 
   0.000312515      5.61387 
    0.00031253      5.30116 
   0.000312545      5.01411 
   0.000312561      4.74535 
   0.000312577       4.5005 
   0.000312593      4.28618 
   0.000312612      4.04565 
   0.000312631      3.84154 
   0.000312653      3.61799 
   0.000312676      3.42148 
   0.000312699      3.24497 
   0.000312723      3.08204 
   0.000312747       2.9436 
   0.000312772      2.80941 
   0.000312803      2.65903 
   0.000312836      2.52443 
   0.000312868      2.40545 
   0.000312901      2.29931 
   0.000312944      2.17373 
   0.000312991      2.05696 
   0.000313042        1.943 
   0.000313091      1.84679 
   0.000313136      1.76911 
   0.000313202       1.6659 
   0.000313274      1.57011 
   0.000313327       1.5062 
   0.000313408      1.42131 
   0.000313488      1.34741 
   0.000313569      1.28253 
   0.000313649      1.22519 
    0.00031372      1.18022 
   0.000313807      1.13029 
   0.000313894       1.0858 
   0.000314025      1.02752 
   0.000314156     0.977547 
   0.000314287     0.934274 
   0.000314441     0.890206 
   0.000314576     0.856904 
    0.00031471     0.827457 
   0.000314911      0.78922 
   0.000315112     0.756749 
   0.000315314     0.728901 
   0.000315543     0.701731 
   0.000315829     0.673412 
   0.000316115     0.650167 
     0.0003164     0.631812 
   0.000316543      0.62545 
   0.000316638     0.623563 
    0.00031671     0.624525 
   0.000316781     0.628904 
   0.000316829     0.634627 
   0.000316876     0.643419 
   0.000316924     0.656133 
   0.000316959     0.668813 
   0.000316999     0.686672 
   0.000317038     0.708554 
    0.00031708     0.737352 
   0.000317119     0.769897 
   0.000317156     0.805108 
   0.000317189     0.841601 
   0.000317234     0.896331 
   0.000317276     0.954119 
   0.000317339      1.04797 
    0.00031745       1.2188 
   0.000317498      1.28702 
    0.00031754      1.33876 
   0.000317579      1.37876 
   0.000317617      1.40783 
   0.000317655      1.42592 
   0.000317692      1.43271 
   0.000317696      1.43276 
   0.000317732       1.4274 
   0.000317764      1.41385 
   0.000317796      1.39242 
    0.00031783      1.36138 
   0.000317864      1.32296 
    0.00031791      1.26188 
   0.000317967      1.17535 
   0.000318078     0.995952 
   0.000318132     0.913422 
   0.000318172     0.856469 
   0.000318213      0.80477 
    0.00031824     0.773485 
   0.000318276      0.73581 
   0.000318312     0.702807 
   0.000318348      0.67431 
   0.000318384     0.650036 
    0.00031842     0.629619 
   0.000318456     0.612645 
   0.000318492     0.598684 
   0.000318546     0.582458 
     0.0003186     0.570713 
   0.000318654     0.562299 
   0.000318708      0.55629 
   0.000318816     0.548834 
    0.00031896      0.54387 
   0.000319122     0.541934 
   0.000319248     0.543503 
   0.000319356     0.548555 
   0.000319428     0.554783 
   0.000319505     0.564572 
   0.000319586     0.578843 
   0.000319666     0.596974 
   0.000319867     0.649287 
   0.000319943     0.665519 
   0.000320009     0.675056 
   0.000320064     0.678844 
   0.000320087     0.679204 
    0.00032014     0.677289 
   0.000320195     0.671364 
    0.00032025     0.661934 
   0.000320328     0.644015 
   0.000320498      0.59935 
   0.000320585     0.579415 
   0.000320651      0.56734 
   0.000320716     0.557935 
   0.000320792     0.550163 
   0.000320888     0.544236 
   0.000321016     0.541038 
    0.00032108     0.540686 
   0.000321272     0.542063 
   0.000321657     0.549031 
   0.000322042     0.558983 
   0.000322426     0.571827 
   0.000322811     0.587838 
   0.000323152     0.605066 
   0.000323493     0.625577 
   0.000323834     0.649887 
   0.000324175     0.678684 
   0.000324516     0.712854 
   0.000324784     0.744062 
   0.000325014     0.774604 
   0.000325244     0.809031 
   0.000325475     0.847938 
   0.000325705     0.892069 
   0.000325921     0.939047 
   0.000326109     0.984966 
   0.000326298      1.03633 
   0.000326486        1.094 
   0.000326674      1.15896 
   0.000326862      1.23246 
   0.000327029      1.30631 
   0.000327197      1.38944 
   0.000327322      1.45882 
   0.000327448      1.53512 
   0.000327597       1.6359 
   0.000327727      1.73475 
   0.000327858      1.84504 
   0.000327989       1.9686 
   0.000328086      2.07086 
   0.000328183      2.18189 
    0.00032828      2.30374 
   0.000328376      2.43788 
   0.000328473      2.58602 
    0.00032857       2.7502 
   0.000328672      2.94369 
   0.000328748       3.1044 
   0.000328825      3.28039 
   0.000328902       3.4737 
   0.000328978      3.68672 
   0.000329046       3.8945 
   0.000329114      4.12238 
   0.000329182      4.37312 
    0.00032925      4.64998 
   0.000329318      4.95685 
    0.00032938        5.268 
    0.00032944      5.59576 
   0.000329499      5.95837 
   0.000329558      6.36122 
   0.000329618       6.8109 
   0.000329672       7.2737 
   0.000329718      7.69861 
   0.000329763      8.16644 
   0.000329808      8.68381 
   0.000329854      9.25882 
   0.000329899       9.9015 
   0.000329943      10.6077 
   0.000329973      11.1284 
   0.000330003      11.6951 
   0.000330032      12.3142 
   0.000330062      12.9932 
   0.000330091      13.7409 
   0.000330121      14.5679 
    0.00033015      15.4614 
   0.000330178      16.4275 
   0.000330206      17.5039 
   0.000330234       18.708 
   0.000330255      19.7069 
   0.000330276      20.7987 
   0.000330297      21.9945 
   0.000330318      23.3064 
   0.000330339      24.7479 
    0.00033036      26.3341 
   0.000330379      27.8991 
   0.000330398      29.6078 
   0.000330417      31.4746 
   0.000330436       33.515 
   0.000330454      35.7454 
   0.000330473      38.1837 
   0.000330492      40.8488 
   0.000330511      43.7605 
    0.00033053      46.9401 
   0.000330549      50.4094 
   0.000330569      54.4845 
   0.000330585      57.8344 
     0.0003306      61.4216 
   0.000330616      65.2592 
   0.000330631      69.3605 
   0.000330654      76.0356 
   0.000330677       83.377 
   0.000330696      89.7079 
   0.000330717      97.6391 
   0.000330738      106.226 
    0.00033076      115.493 
   0.000330781      125.732 
   0.000330804      137.017 
   0.000330825      148.481 
   0.000330845      160.009 
   0.000330867      172.877 
   0.000330889      187.179 
   0.000330923      210.018 
   0.000330956      234.375 
   0.000331001      268.808 
    0.00033108      332.223 
   0.000331147       386.18 
   0.000331192      419.753 
   0.000331225      442.733 
   0.000331259      463.218 
   0.000331293      480.699 
   0.000331326      494.727 
   0.000331361      505.201 
   0.000331386      509.987 
    0.00033141      512.492 
   0.000331425      512.885 
    0.00033145        511.7 
   0.000331481      506.865 
   0.000331512      498.416 
   0.000331546      485.583 
    0.00033158      469.177 
   0.000331613      449.624 
   0.000331647       427.42 
   0.000331687      398.031 
   0.000331746      352.163 
   0.000331836      278.682 
   0.000331877      247.276 
   0.000331916      218.331 
   0.000331943      199.606 
   0.000331968      182.861 
   0.000331994      167.164 
   0.000332019      152.502 
   0.000332044      138.855 
   0.000332069      126.331 
   0.000332087      118.245 
   0.000332105      110.169 
   0.000332126      101.715 
   0.000332147      93.6341 
   0.000332167      86.5695 
   0.000332187      80.0549 
   0.000332207      74.0639 
   0.000332228      68.5688 
   0.000332247      63.8208 
   0.000332266      59.3204 
   0.000332283      55.7855 
     0.0003323      52.5226 
   0.000332317      49.5164 
   0.000332334      46.7523 
    0.00033235      44.2165 
   0.000332367      41.8959 
   0.000332384      39.7784 
   0.000332401      37.8529 
   0.000332419      36.0198 
   0.000332437      34.3387 
   0.000332455      32.8494 
   0.000332476      31.3565 
   0.000332497      30.0998 
   0.000332518      29.0731 
   0.000332539      28.2735 
    0.00033256      27.7015 
   0.000332575      27.4383 
    0.00033259      27.2873 
   0.000332598      27.2611 
   0.000332614      27.3102 
   0.000332629      27.4997 
   0.000332645      27.8364 
    0.00033266      28.3285 
   0.000332675      28.9855 
   0.000332691      29.8179 
   0.000332706      30.8118 
   0.000332721      31.9967 
   0.000332736      33.3862 
   0.000332751       34.995 
   0.000332766      36.8388 
   0.000332782      38.9348 
   0.000332797       41.301 
   0.000332812      43.9568 
   0.000332827      46.9225 
   0.000332842      50.2195 
   0.000332857      53.8016 
   0.000332871      57.5964 
   0.000332885      61.7487 
     0.0003329      66.2792 
   0.000332914      71.2093 
   0.000332928      76.5606 
   0.000332943      82.3552 
   0.000332957      88.6151 
   0.000332971      95.3623 
   0.000332986      102.619 
      0.000333      110.406 
   0.000333012      117.655 
   0.000333028      127.219 
   0.000333043      137.472 
   0.000333059      148.437 
   0.000333074      160.137 
   0.000333089      172.592 
   0.000333105      185.821 
    0.00033312      199.838 
   0.000333137      215.722 
   0.000333154      233.668 
   0.000333172      252.678 
    0.00033319      272.758 
   0.000333214      301.742 
   0.000333236      331.009 
   0.000333259      361.982 
   0.000333282      394.708 
   0.000333316      446.727 
    0.00033335      501.942 
   0.000333395      579.754 
   0.000333452      681.913 
   0.000333549      860.867 
   0.000333553      868.248 
   0.000333553      46.1244 
   0.000338259      45.7847 
   0.000343031      45.4402 
   0.000347871      45.0909 
   0.000352778      44.7366 
   0.000357755      44.3773 
   0.000362803       44.013 
   0.000367921      43.6435 
   0.000373112      43.2688 
   0.000378376      42.8888 
   0.000383714      42.5035 
   0.000389128      42.1127 
   0.000394617      41.7164 
   0.000400185      41.3145 
   0.000405831       40.907 
   0.000411556      40.4937 
   0.000417363      40.0745 
   0.000423251      39.6495 
   0.000429222      39.2185 
   0.000435278      38.7813 
   0.000441419      38.3381 
   0.000447646      37.8885 
   0.000453962      37.4326 
   0.000460366      36.9703 
   0.000466861      36.5015 
   0.000473448       36.026 
   0.000480127      35.5438 
   0.000486901      35.0549 
    0.00049377       34.559 
   0.000500737      34.0562 
   0.000507801      33.5462 
   0.000514965      33.0291 
    0.00052223      32.5046 
   0.000529598      31.9728 
    0.00053707      31.4334 
   0.000544647      30.8865 
   0.000552331      30.3318 
   0.000560123      29.7693 
   0.000568026      29.1989 
   0.000576039      28.6204 
   0.000584166      28.0338 
   0.000592408      27.4388 
        0.0006      26.8908 
   0.000608465      26.6875 
   0.000617049      26.4814 
   0.000625755      26.2724 
   0.000634583      26.0604 
   0.000643536      25.8455 
   0.000652615      25.6275 
   0.000661822      25.4064 
   0.000671159      25.1822 
   0.000680628      24.9548 
   0.000690231      24.7243 
   0.000699968      24.4905 
   0.000709844      24.2533 
   0.000719858      24.0129 
   0.000730014       23.769 
   0.000740313      23.5217 
   0.000750758       23.271 
    0.00076135      23.0166 
   0.000772091      22.7587 
   0.000782984      22.4972 
    0.00079403      22.2319 
   0.000805233       21.963 
   0.000816593      21.6902 
   0.000828114      21.4136 
   0.000839797       21.133 
   0.000851645      20.8486 
    0.00086366      20.5601 
   0.000875845      20.2675 
   0.000888201      19.9708 
   0.000900732      19.6699 
    0.00091344      19.3648 
   0.000926327      19.0554 
   0.000939396      18.7416 
   0.000952649      18.4233 
   0.000966089      18.1006 
   0.000979719      17.7734 
   0.000993541      17.4415 
         0.001      17.2864 
    0.00101411      17.1755 
    0.00102842      17.0631 
    0.00104292      16.9491 
    0.00105764      16.8335 
    0.00107256      16.7162 
    0.00108769      16.5973 
    0.00110304      16.4767 
     0.0011186      16.3544 
    0.00113438      16.2304 
    0.00115038      16.1047 
    0.00116661      15.9771 
    0.00118307      15.8478 
    0.00119976      15.7166 
    0.00121669      15.5836 
    0.00123386      15.4487 
    0.00125126       15.312 
    0.00126892      15.1732 
    0.00128682      15.0326 
    0.00130497      14.8899 
    0.00132338      14.7452 
    0.00134205      14.5985 
    0.00136099      14.4497 
    0.00138019      14.2988 
    0.00139966      14.1458 
    0.00141941      13.9907 
    0.00143943      13.8333 
    0.00145974      13.6737 
    0.00148034      13.5119 
    0.00150122      13.3478 
     0.0015224      13.1813 
    0.00154388      13.0126 
    0.00156566      12.8414 
    0.00158775      12.6678 
    0.00161015      12.4918 
    0.00163287      12.3133 
     0.0016559      12.1323 
    0.00167926      11.9487 
    0.00170296      11.7625 
    0.00172698      11.5737 
    0.00175135      11.3823 
    0.00177605      11.1881 
    0.00180111      10.9912 
    0.00182652      10.7915 
    0.00185229      10.5891 
    0.00187842      10.3837 
    0.00190492      10.1755 
     0.0019318      9.96427 
    0.00195905      9.75011 
    0.00198669      9.53292 
         0.002      9.42834 
    0.00202822      9.34856 
    0.00205683      9.26766 
    0.00208585      9.18561 
    0.00211528      9.10241 
    0.00214512      9.01803 
    0.00217538      8.93247 
    0.00220607      8.84569 
     0.0022372      8.75769 
    0.00226876      8.66845 
    0.00230077      8.57795 
    0.00233323      8.48618 
    0.00236615      8.39311 
    0.00239953      8.29872 
    0.00243338      8.20301 
    0.00246771      8.10594 
    0.00250253      8.00751 
    0.00253783      7.90768 
    0.00257364      7.80645 
    0.00260995      7.70379 
    0.00264677      7.59968 
    0.00268411       7.4941 
    0.00272198      7.38704 
    0.00276038      7.27846 
    0.00279932      7.16835 
    0.00283882      7.05669 
    0.00287887      6.94345 
    0.00291948      6.82861 
    0.00296067      6.71216 
         0.003      6.60096 
    0.00590931      3.69073 
    0.00590931      3.69002 
    0.00599268      3.60733 
     0.0061201      3.56195 
          0.01      2.33234 
          0.02      1.36339 
          0.03       1.0555 
          0.06     0.714217 
           0.1      0.45766 
           0.2     0.336502 
           0.3     0.293345 
           0.4       0.2201 
           0.5     0.124511 
           0.6    0.0974988 
      0.699969    0.0779557 
           0.8    0.0632678 
           0.9    0.0524312 
             1    0.0445864 
           1.2      0.03545 
           1.4    0.0308495 
           1.6    0.0279839 
        1.8127    0.0258313 
       2.24678    0.0219921 
       2.43386    0.0202324 
        2.7116    0.0174674 
       2.87956    0.0157997 
             3    0.0146282 
           3.2    0.0129199 
       3.44797    0.0110002 
           3.6   0.00984965 
           3.8   0.00848979 
             4   0.00743689 
       4.22963   0.00642196 
           4.4   0.00564258 
           4.6   0.00496062 
           4.8    0.0044196 
             5    0.0038407 
           5.2   0.00342633 
           5.4    0.0030745 
           5.6   0.00277348 
           5.8   0.00250208 
             6   0.00227427 
       6.24374    0.0020464 
           6.4   0.00190631 
           6.6   0.00179445 
           6.8   0.00165557 
           7.2   0.00150109 
           7.4   0.00143599 
           7.6   0.00143025 
           7.8   0.00136524 
       8.11287   0.00135051 
           8.5   0.00132826 
             9   0.00132585 
            10   0.00134369 
       10.1411   0.00134504 
       10.2842   0.00134641 
       10.4292   0.00134779 
          10.5   0.00134847 
       10.6481   0.00134586 
       10.7984   0.00134322 
       10.9507   0.00134054 
            11   0.00133967 
       11.1552   0.00133498 
       11.3126   0.00133022 
       11.4722   0.00132539 
          11.5   0.00132455 
       11.6622   0.00131625 
       11.8268   0.00130783 
       11.9936   0.00129929 
            12   0.00129896 
       12.1693   0.00128809 
        12.341   0.00127707 
          12.5   0.00126686 
       12.6764   0.00125295 
       12.8552   0.00123884 
            13   0.00122741 
       13.1834   0.00120589 
       13.3694   0.00118407 
          13.5   0.00116875 
       13.6905   0.00115045 
       13.8836   0.00113188 
            14    0.0011207 
       14.1975   0.00108841 
       14.3978   0.00105566 
          14.5   0.00103896 
       14.7046   0.00101324 
        14.912  0.000987162 
            15  0.000976102 
       15.2116  0.000942511 
       15.4262  0.000908445 
       15.6439    0.0008739 
       15.8646  0.000838866 
            16   0.00081737 
       16.2257  0.000786692 
       16.4546  0.000755581 
       16.6868  0.000724031 
       16.9222  0.000692036 
            17  0.000681464 
       17.2398  0.000656034 
       17.4831  0.000630246 
       17.7297  0.000604094 
       17.9799  0.000577572 
            18  0.000575436 
       18.2539  0.000555065 
       18.5115  0.000534406 
       18.7726  0.000513456 
            19  0.000495218 
       19.2681  0.000478989 
       19.5399   0.00046253 
       19.8156   0.00044584 
            20  0.000434673 
       20.2822  0.000422321 
       20.5683  0.000409794 
       20.8585  0.000397091 
            21  0.000390896 
       21.2963  0.000379529 
       21.5967  0.000368002 
       21.9014  0.000356312 
            22   0.00035253 
       22.3104  0.000343494 
       22.6251   0.00033433 
       22.9443  0.000325037 
            23  0.000323417 
       23.3245  0.000314735 
       23.6536   0.00030593 
       23.9873  0.000297002 
            24  0.000296661 
       24.3386  0.000290296 
        24.682  0.000283842 
            25  0.000277864 
       25.3527  0.000270929 
       25.7104  0.000263896 
            26  0.000258201 
       26.3668  0.000253837 
       26.7388  0.000249411 
            27  0.000246304 
       27.3809   0.00024122 
       27.7672  0.000236065 
        28.159  0.000230837 
       28.5562  0.000225535 
       28.9591  0.000220159 
            29  0.000219613 
       29.4091  0.000216331 
        29.824  0.000213002 
            30  0.000211591 
